"cell_id","acc_x","acc_y"
"0","0.0","0.0"
"1","0.0","0.0"
"2","0.0","0.0"
"3","0.0","0.0"
"4","0.0","0.0"
"5","0.0","0.0"
"6","0.0","0.0"
"7","0.0","0.0"
"8","0.0","0.0"
"9","0.0","0.0"
"10","0.0","0.0"
"11","0.0","0.0"
"12","0.0","0.0"
"13","0.0","0.0"
"14","0.0","0.0"
"15","0.0","0.0"
"16","0.0","0.0"
"17","0.0","0.0"
"18","0.0","0.0"
"19","0.0","0.0"
"20","0.0","0.0"
"21","0.0","0.0"
"22","0.0","0.0"
"23","0.0","0.0"
"24","0.0","0.0"
"25","0.0","0.0"
"26","0.0","0.0"
"27","0.0","0.0"
"28","0.0","0.0"
"29","0.0","0.0"
"30","0.0","0.0"
"31","0.0","0.0"
"32","0.0","0.0"
"33","0.0","0.0"
"34","0.0","0.0"
"35","0.0","0.0"
"36","0.0","0.0"
"37","0.0","0.0"
"38","0.0","0.0"
"39","0.0","0.0"
"40","0.0","0.0"
"41","0.0","0.0"
"42","0.0","0.0"
"43","0.0","0.0"
"44","0.0","0.0"
"45","0.0","0.0"
"46","0.0","0.0"
"47","0.0","0.0"
"48","0.0","0.0"
"49","0.0","0.0"
"50","0.0","0.0"
"51","0.0","0.0"
"52","0.0","0.0"
"53","0.0","0.0"
"54","0.0","0.0"
"55","0.0","0.0"
"56","0.0","0.0"
"57","0.0","0.0"
"58","0.0","0.0"
"59","0.0","0.0"
"60","0.0","0.0"
"61","0.0","0.0"
"62","0.0","0.0"
"63","0.0","0.0"
"64","0.0","0.0"
"65","0.0","0.0"
"66","0.0","0.0"
"67","0.0","0.0"
"68","0.0","0.0"
"69","0.0","0.0"
"70","0.0","0.0"
"71","0.0","0.0"
"72","0.0","0.0"
"73","0.0","0.0"
"74","0.0","0.0"
"75","0.0","0.0"
"76","0.0","0.0"
"77","0.0","0.0"
"78","0.0","0.0"
"79","0.0","0.0"
"80","0.0","0.0"
"81","0.0","0.0"
"82","0.0","0.0"
"83","0.0","0.0"
"84","0.0","0.0"
"85","0.0","0.0"
"86","0.0","0.0"
"87","0.0","0.0"
"88","0.0","0.0"
"89","0.0","0.0"
"90","0.0","0.0"
"91","0.0","0.0"
"92","0.0","0.0"
"93","0.0","0.0"
"94","0.0","0.0"
"95","0.0","0.0"
"96","0.0","0.0"
"97","0.0","0.0"
"98","0.0","0.0"
"99","0.0","0.0"
"100","0.0","0.0"
"101","0.0","0.0"
"102","0.0","0.0"
"103","0.0","0.0"
"104","0.0","0.0"
"105","0.0","0.0"
"106","0.0","0.0"
"107","0.0","0.0"
"108","0.0","0.0"
"109","0.0","0.0"
"110","0.0","0.0"
"111","0.0","0.0"
"112","0.0","0.0"
"113","0.0","0.0"
"114","0.0","0.0"
"115","0.0","0.0"
"116","0.0","0.0"
"117","0.0","0.0"
"118","0.0","0.0"
"119","0.0","0.0"
"120","0.0","0.0"
"121","0.0","0.0"
"122","0.0","0.0"
"123","0.0","0.0"
"124","0.0","0.0"
"125","0.0","0.0"
"126","0.0","0.0"
"127","0.0","0.0"
"128","0.0","0.0"
"129","0.0","0.0"
"130","0.0","0.0"
"131","0.0","0.0"
"132","0.0","0.0"
"133","0.0","0.0"
"134","0.0","0.0"
"135","0.0","0.0"
"136","0.0","0.0"
"137","0.0","0.0"
"138","0.0","0.0"
"139","0.0","0.0"
"140","0.0","0.0"
"141","0.0","0.0"
"142","0.0","0.0"
"143","0.0","0.0"
"144","0.0","0.0"
"145","0.0","0.0"
"146","0.0","0.0"
"147","0.0","0.0"
"148","0.0","0.0"
"149","0.0","0.0"
"150","0.0","0.0"
"151","0.0","0.0"
"152","0.0","0.0"
"153","0.0","0.0"
"154","0.0","0.0"
"155","0.0","0.0"
"156","0.0","0.0"
"157","0.0","0.0"
"158","0.0","0.0"
"159","0.0","0.0"
"160","0.0","0.0"
"161","0.0","0.0"
"162","0.0","0.0"
"163","0.0","0.0"
"164","0.0","0.0"
"165","0.0","0.0"
"166","0.0","0.0"
"167","0.0","0.0"
"168","0.0","0.0"
"169","0.0","0.0"
"170","0.0","0.0"
"171","0.0","0.0"
"172","0.0","0.0"
"173","0.0","0.0"
"174","0.0","0.0"
"175","0.0","0.0"
"176","0.0","0.0"
"177","0.0","0.0"
"178","0.0","0.0"
"179","0.0","0.0"
"180","0.0","0.0"
"181","0.0","0.0"
"182","0.0","0.0"
"183","0.0","0.0"
"184","0.0","0.0"
"185","0.0","0.0"
"186","0.0","0.0"
"187","0.0","0.0"
"188","0.0","0.0"
"189","0.0","0.0"
"190","0.0","0.0"
"191","0.0","0.0"
"192","0.0","0.0"
"193","0.0","0.0"
"194","0.0","0.0"
"195","0.0","0.0"
"196","0.0","0.0"
"197","0.0","0.0"
"198","0.0","0.0"
"199","0.0","0.0"
"200","0.013599999999996726","0.0065800000000013625"
"201","0.012259999999997717","0.017442499999999583"
"202","0.012212000000005219","0.013203999999999638"
"203","0.008343333333332481","0.008778333333333185"
"204","0.009890000000005728","0.0052400000000005775"
"205","0.0","0.0"
"206","0.0","0.0"
"207","0.0","0.0"
"208","0.0","0.0"
"209","0.0","0.0"
"210","0.0","0.0"
"211","0.0","0.0"
"212","0.0","0.0"
"213","0.0","0.0"
"214","0.0","0.0"
"215","0.0","0.0"
"216","0.0","0.0"
"217","0.0","0.0"
"218","0.0","0.0"
"219","0.0","0.0"
"220","0.0","0.0"
"221","0.0","0.0"
"222","0.0","0.0"
"223","0.0","0.0"
"224","0.0","0.0"
"225","0.0","0.0"
"226","0.0","0.0"
"227","0.0","0.0"
"228","0.0","0.0"
"229","0.0","0.0"
"230","0.0","0.0"
"231","0.005845000000007872","0.0046850000000011605"
"232","0.010267647058824991","0.014030000000000091"
"233","0.006493333333324358","0.015576666666666128"
"234","0.0","0.0"
"235","0.0","0.0"
"236","0.0","0.0"
"237","0.0","0.0"
"238","0.0","0.0"
"239","0.0","0.0"
"240","0.0","0.0"
"241","0.0","0.0"
"242","0.0","0.0"
"243","0.0","0.0"
"244","0.0","0.0"
"245","0.0","0.0"
"246","0.0","0.0"
"247","0.0077955555555572825","0.005001111111111061"
"248","0.0","0.0"
"249","0.0","0.0"
"250","0.0","0.0"
"251","0.0047499999999978115","0.009120000000000239"
"252","0.0010550000000009163","0.005149999999999544"
"253","0.0","0.0"
"254","0.0","0.0"
"255","0.0","0.0"
"256","0.0","0.0"
"257","0.0","0.0"
"258","0.0","0.0"
"259","0.0","0.0"
"260","0.0","0.0"
"261","0.0","0.0"
"262","0.0","0.0"
"263","0.0","0.0"
"264","0.0","0.0"
"265","0.0","0.0"
"266","0.010632499999999823","0.024860000000000326"
"267","0.030909999999991555","0.02885999999999811"
"268","0.0","0.0"
"269","0.003150000000005093","0.014899999999999025"
"270","0.0","0.0"
"271","0.0","0.0"
"272","0.0","0.0"
"273","0.0","0.0"
"274","0.0","0.0"
"275","0.0","0.0"
"276","0.00951700000000102","0.011859999999999893"
"277","0.014685263157891888","0.008216315789474243"
"278","0.014384444444448578","0.01897888888888883"
"279","0.06031714285713414","0.05440142857142887"
"280","0.029712000000000672","0.03072400000000002"
"281","0.0","0.0"
"282","0.0","0.0"
"283","0.0","0.0"
"284","0.0","0.0"
"285","0.0","0.0"
"286","0.0","0.0"
"287","0.0","0.0"
"288","0.0","0.0"
"289","0.0","0.0"
"290","0.16210999999999842","0.09195999999999938"
"291","0.012296666666676023","0.026796666666667097"
"292","0.0","0.0"
"293","0.0037099999999981037","0.005929999999999325"
"294","0.0","0.0"
"295","0.0","0.0"
"296","0.0","0.0"
"297","0.0","0.0"
"298","0.0","0.0"
"299","0.0","0.0"
"300","0.0016899999999964166","4.7999999999959186E-4"
"301","0.0","0.0"
"302","0.0","0.0"
"303","0.0","0.0"
"304","0.0","0.0"
"305","8.000000000407681E-5","0.002140000000000697"
"306","0.0","0.0"
"307","0.0","0.0"
"308","0.0","0.0"
"309","0.0","0.0"
"310","0.0","0.0"
"311","0.01220999999999961","0.03822499999999973"
"312","0.004579999999997142","0.012450000000001182"
"313","0.0","0.0"
"314","0.0","0.0"
"315","0.0","0.0"
"316","0.0","0.0"
"317","0.016337499999998784","0.022857500000000197"
"318","0.006311250000001323","0.012391250000000076"
"319","1.2000000000966793E-4","0.002609999999998891"
"320","0.001550000000008822","0.04958999999999847"
"321","0.008780000000015775","0.005770000000001829"
"322","0.015909999999990987","0.0029300000000027637"
"323","0.016310909090908477","0.022097272727273163"
"324","0.015612000000001559","0.02223199999999963"
"325","0.03651999999998168","0.005710000000000548"
"326","0.020054999999992162","0.03950500000000012"
"327","0.009346666666653883","0.02619666666666672"
"328","0.0","0.0"
"329","0.0","0.0"
"330","0.0","0.0"
"331","0.0","0.0"
"332","0.0","0.0"
"333","0.0","0.0"
"334","0.0","0.0"
"335","0.0041700000000020054","0.0010399999999997078"
"336","0.003994999999996196","0.047549999999999315"
"337","0.0","0.0"
"338","0.0","0.0"
"339","0.004556666666663507","0.0047800000000002285"
"340","0.0","0.0"
"341","0.0","0.0"
"342","0.0","0.0"
"343","0.0","0.0"
"344","0.0","0.0"
"345","0.0","0.0"
"346","0.0","0.0"
"347","5.400000000008731E-4","0.0065549999999996444"
"348","0.0","0.0"
"349","0.0","0.0"
"350","0.0","0.0"
"351","3.699999999966508E-4","0.008340000000000458"
"352","0.0036199999999908528","0.004700000000001481"
"353","0.0","0.0"
"354","0.0","0.0"
"355","0.0","0.0"
"356","0.019089999999998497","0.008729999999999905"
"357","0.0","0.0"
"358","0.0","0.0"
"359","0.0","0.0"
"360","0.0","0.0"
"361","0.0","0.0"
"362","0.0","0.0"
"363","0.005926999999998373","0.008397000000000432"
"364","0.005712222222227423","0.00866444444444466"
"365","0.05200999999999567","0.017870000000000275"
"366","0.0","0.0"
"367","0.0","0.0"
"368","0.001949999999993679","0.015389999999998238"
"369","0.022309999999990282","0.025890000000000413"
"370","0.0","0.0"
"371","0.1621363157894745","0.35932526315789465"
"372","0.07898799999999634","0.04884466666666671"
"373","0.017250000000006576","0.029584999999999678"
"374","0.005610000000004334","0.02427500000000027"
"375","0.0","0.0"
"376","0.0","0.0"
"377","0.0","0.0"
"378","0.0","0.0"
"379","0.004142000000000697","0.01172933333333385"
"380","0.003864999999997565","0.0062275000000004965"
"381","0.025509999999997035","0.050940000000004204"
"382","0.15834500000000418","0.07587000000000188"
"383","0.0","0.0"
"384","0.0","0.0"
"385","0.0","0.0"
"386","0.007169999999987908","0.0032700000000005502"
"387","0.0","0.0"
"388","0.013296249999999787","0.014472499999999666"
"389","0.009105000000001695","0.011152500000002341"
"390","0.0","0.0"
"391","0.0","0.0"
"392","0.0","0.0"
"393","0.0","0.0"
"394","0.01128999999999678","0.004316000000001097"
"395","0.0","0.0"
"396","0.0","0.0"
"397","0.0","0.0"
"398","0.0","0.0"
"399","0.0","0.0"
"400","0.0","0.0"
"401","0.008469999999995537","0.013819999999999055"
"402","0.008000000000002672","0.008449999999999847"
"403","0.0","0.0"
"404","0.0","0.0"
"405","0.0","0.0"
"406","0.0","0.0"
"407","0.0","0.0"
"408","0.0","0.0"
"409","0.0","0.0"
"410","0.0","0.0"
"411","0.0030076923076926766","0.003092307692307591"
"412","0.0","0.0"
"413","0.0","0.0"
"414","0.008098000000001094","0.012448000000001258"
"415","7.199999999869533E-4","0.0020499999999969987"
"416","0.0","0.0"
"417","0.01414000000001181","0.02804000000000073"
"418","0.04428124999999916","0.03504874999999963"
"419","0.013106875000000073","0.01673562500000003"
"420","0.02109000000000094","0.042310000000000514"
"421","0.0010500000000064347","0.026309999999998723"
"422","0.0","0.0"
"423","0.0","0.0"
"424","0.0","0.0"
"425","0.024822857142859384","0.013448571428572873"
"426","0.0085899999999981","0.018640000000004875"
"427","0.00751999999999479","0.005666666666666487"
"428","0.00669000000000608","0.013184000000000395"
"429","0.005203999999999098","0.013039000000000555"
"430","0.0","0.0"
"431","0.004569999999993968","0.0027200000000000557"
"432","0.026450000000011187","0.015226666666666944"
"433","0.004444999999996924","0.0029999999999983373"
"434","0.0011100000000112686","0.003800000000001802"
"435","0.013224999999991383","0.011829999999999785"
"436","0.0","0.0"
"437","0.0","0.0"
"438","0.0","0.0"
"439","0.0","0.0"
"440","0.0","0.0"
"441","0.0176400000000001","0.004655000000001408"
"442","0.004570000000001073","0.002209999999998047"
"443","0.0","0.0"
"444","0.0","0.0"
"445","0.0","0.0"
"446","0.0065099999999986835","0.0023900000000018906"
"447","0.0","0.0"
"448","0.0","0.0"
"449","0.0","0.0"
"450","0.0","0.0"
"451","0.0","0.0"
"452","0.0","0.0"
"453","0.0","0.0"
"454","0.0","0.0"
"455","0.002900000000011005","0.008540000000003545"
"456","0.0","0.0"
"457","0.0","0.0"
"458","0.0","0.0"
"459","0.00929999999999609","0.010729999999998796"
"460","0.004833333333342201","0.002713333333332457"
"461","0.0","0.0"
"462","0.0","0.0"
"463","0.0","0.0"
"464","0.0","0.0"
"465","0.033520000000009986","0.04886999999999908"
"466","0.011056666666661386","0.01665444444444475"
"467","0.0","0.0"
"468","0.002944999999996867","0.030895000000001005"
"469","0.0","0.0"
"470","0.0","0.0"
"471","0.0","0.0"
"472","0.020243500000002256","0.02448900000000087"
"473","0.0","0.0"
"474","0.01660833333333045","0.006253333333333444"
"475","0.010831428571425558","0.005492857142857791"
"476","0.003615000000000634","0.0056009999999989905"
"477","0.007446428571424032","0.006729999999999237"
"478","0.0025699999999915235","0.00854999999999606"
"479","0.018620000000012737","0.012139999999998707"
"480","0.0","0.0"
"481","0.0","0.0"
"482","0.02295999999999765","3.4000000000489194E-4"
"483","0.0","0.0"
"484","0.0","0.0"
"485","0.0","0.0"
"486","0.0","0.0"
"487","0.0","0.0"
"488","0.005710000000007653","0.009129999999998972"
"489","2.2999999999484544E-4","0.010960000000000747"
"490","0.006330000000005498","0.005289999999998685"
"491","0.00280000000000058","0.01736999999999611"
"492","0.0","0.0"
"493","0.0","0.0"
"494","8.300000000005525E-4","7.300000000007856E-4"
"495","0.0","0.0"
"496","0.020495000000000374","0.00875500000000251"
"497","0.0","0.0"
"498","0.009120000000000536","0.013199999999998843"
"499","0.011247499999999633","0.013618750000000457"
"500","0.01275461538461378","0.011966153846153396"
"501","0.0","0.0"
"502","0.0","0.0"
"503","0.003994999999996196","0.008117499999999112"
"504","0.0013300000000100454","0.009979999999998768"
"505","0.0","0.0"
"506","0.017956666666663068","0.017070000000000363"
"507","0.0","0.0"
"508","0.0","0.0"
"509","0.0","0.0"
"510","0.0","0.0"
"511","0.018124166666666497","0.0041133333333333395"
"512","0.011867499999997477","0.008222499999999577"
"513","0.040728333333326816","0.016029999999999472"
"514","0.0","0.0"
"515","0.010430000000013706","0.01530999999999949"
"516","0.0","0.0"
"517","0.006399999999999295","0.003900000000001569"
"518","0.0","0.0"
"519","0.026431428571427773","0.022762857142856672"
"520","0.030932727272727334","0.03337818181818231"
"521","0.0","0.0"
"522","0.0052219999999991275","0.021034999999999825"
"523","0.014997499999999775","0.02844250000000148"
"524","0.009031249999997826","0.0026124999999996845"
"525","0.015304999999997904","0.0194599999999987"
"526","0.0026900000000011914","0.006233333333334201"
"527","0.0","0.0"
"528","0.0","0.0"
"529","0.0","0.0"
"530","0.009285000000005539","0.0028600000000000847"
"531","0.003200000000006753","0.007339999999995683"
"532","0.0","0.0"
"533","0.0","0.0"
"534","0.0","0.0"
"535","0.0","0.0"
"536","0.0","0.0"
"537","0.0","0.0"
"538","0.0","0.0"
"539","0.0","0.0"
"540","0.0","0.0"
"541","0.0","0.0"
"542","0.0","0.0"
"543","0.0","0.0"
"544","0.013049999999999784","0.016309999999998936"
"545","0.006739999999993529","0.0012900000000044543"
"546","0.0","0.0"
"547","0.9297321428571441","0.4599503571428571"
"548","9.50000000003115E-4","0.0020300000000013085"
"549","0.010400000000004184","0.0015299999999953684"
"550","0.036510000000006926","0.023229999999998086"
"551","0.007106666666665262","0.017569999999999197"
"552","0.013855714285710974","0.010637142857144153"
"553","0.04395200000000443","0.08471499999999992"
"554","0.005690000000015516","0.04770000000000252"
"555","0.015900000000002024","0.017949999999999022"
"556","0.01845333333333225","0.014499166666666952"
"557","0.0","0.0"
"558","0.030453333333336257","0.026243333333333396"
"559","0.028791874999997802","0.027443749999999545"
"560","0.011369999999999436","0.02587999999999724"
"561","0.0","0.0"
"562","0.0033500000000117325","0.010470000000005086"
"563","0.0","0.0"
"564","0.034624999999991246","0.04338000000000264"
"565","0.0","0.0"
"566","0.0378833333333309","-0.05091666666666583"
"567","0.054617500000000874","0.055431250000000265"
"568","0.0","0.0"
"569","0.011980000000002633","-0.0010819999999995388"
"570","0.01977499999999921","0.021874999999998757"
"571","0.011309375000003286","-0.005431874999999975"
"572","0.0","0.0"
"573","0.0","0.0"
"574","0.0","0.0"
"575","0.0","0.0"
"576","0.006359999999986599","2.49999999997641E-4"
"577","0.0","0.0"
"578","0.0","0.0"
"579","0.0","0.0"
"580","0.0","0.0"
"581","0.0","0.0"
"582","0.0","0.0"
"583","0.0","0.0"
"584","0.008819999999992945","-0.0030699999999974636"
"585","0.0","0.0"
"586","0.0037400000000005207","-0.0021499999999967656"
"587","0.005515000000002601","-0.010464999999999947"
"588","0.0","0.0"
"589","0.0","0.0"
"590","0.0","0.0"
"591","0.0","0.0"
"592","0.0","0.0"
"593","0.021169999999997913","-0.0016699999999971737"
"594","0.02277749999999834","-0.006427499999999142"
"595","0.016604999999998427","0.017879999999999896"
"596","0.0053799999999952774","0.014230000000001297"
"597","0.0","0.0"
"598","0.002344999999998265","-0.003369999999999133"
"599","8.299999999792362E-4","1.8999999999991246E-4"
"600","0.016966249999995853","0.028108749999999016"
"601","0.01551250000000337","-1.2000000000167432E-4"
"602","0.0","0.0"
"603","0.014062857142856646","0.013739999999999546"
"604","0.032809999999997785","0.002990000000004045"
"605","0.009549999999990177","0.007600000000000051"
"606","0.03134250000000449","0.037629999999999164"
"607","0.005929999999978008","-0.04204000000000363"
"608","0.0","0.0"
"609","0.0","0.0"
"610","0.0","0.0"
"611","0.018229999999988422","-0.02808000000000277"
"612","0.05655399999999986","-0.034270000000000064"
"613","0.04836399999999515","-0.14949599999999919"
"614","0.009280000000003952","-0.01186999999999827"
"615","0.03207666666665906","-0.021363333333332218"
"616","0.02260210526315937","-0.022205263157894405"
"617","0.014692631578948354","-0.01553315789473686"
"618","0.004329999999995948","-0.0012500000000024158"
"619","0.017926999999997407","-0.017308000000000944"
"620","0.020121666666663412","-0.01123999999999962"
"621","0.014072857142857791","-0.01713000000000012"
"622","0.00793999999999547","-0.007436666666665796"
"623","0.012057999999990443","-0.019276000000000692"
"624","0.01198000000000358","-0.019086666666668844"
"625","0.004570000000003442","-0.009349999999998934"
"626","0.0060966666666667875","-0.007249999999998498"
"627","0.011745000000001227","-0.021454999999999558"
"628","0.01382833333333148","-0.0065066666666678446"
"629","0.00950500000000254","-0.007815000000000794"
"630","0.007680000000004128","-0.006287500000000001"
"631","0.010576666666662978","-0.004443333333333281"
"632","0.014170000000000016","-0.00981999999999772"
"633","0.005482499999999391","-0.012247499999999079"
"634","0.004941428571427764","-0.0034185714285714297"
"635","0.004416250000001121","-0.006045000000000744"
"636","0.01004999999999967","-0.013139999999996377"
"637","0.0011799999999979605","-0.0033849999999997493"
"638","0.004529999999995482","-0.00727499999999992"
"639","0.012299999999996203","-0.013799999999999812"
"640","0.013476666666665693","-0.005330000000000723"
"641","0.008466000000001372","-0.007271999999999679"
"642","0.053131999999996536","-0.019709999999999183"
"643","0.012790000000002522","-0.004735000000000156"
"644","0.0035516666666666197","-0.005013333333333018"
"645","0.0035700000000016274","-0.005361250000000428"
"646","0.00821749999999355","-0.011967499999999909"
"647","0.006549999999997169","-0.004464999999999719"
"648","0.004980000000003315","-0.008110000000001172"
"649","0.018819999999990955","-0.009099999999998332"
"650","0.0","0.0"
"651","0.008670000000009281","-0.02803999999999718"
"652","0.0","0.0"
"653","0.01190000000000424","-0.012589999999999435"
"654","0.0","0.0"
"655","7.70000000002824E-4","-0.03681999999999519"
"656","0.0","0.0"
"657","0.0","0.0"
"658","0.02709499999999565","-0.02822999999999709"
"659","0.029785000000011053","-0.030210000000003845"
"660","0.0","0.0"
"661","0.0","0.0"
"662","0.012371176470589476","-0.012733529411765185"
"663","0.0073440000000005055","-0.00547899999999899"
"664","0.009926315789476354","-0.010616315789473418"
"665","0.012006428571427006","-0.013590714285714662"
"666","0.043943333333335964","-0.040150000000000574"
"667","0.0649400000000071","-0.05542999999999765"
"668","0.0","0.0"
"669","0.007819999999995275","-0.007420000000003313"
"670","0.002114999999989209","-0.003879999999996997"
"671","0.012412499999999937","-0.002875000000000405"
"672","0.0032199999999988904","-0.0024533333333340104"
"673","0.048245000000001426","-0.08143999999999885"
"674","0.0","0.0"
"675","0.021883333333325556","-0.015929999999999705"
"676","0.004149999999995657","-0.006209999999999383"
"677","0.015118000000002496","-0.021635999999999454"
"678","0.006199999999999761","-0.004359999999999549"
"679","0.0070449999999979696","-0.020635000000000403"
"680","0.012910000000005084","-0.014274999999997817"
"681","0.0038499999999928036","-6.599999999963302E-4"
"682","0.005780000000008556","-0.008269999999996003"
"683","0.02844000000000335","-0.007839999999999256"
"684","0.010393333333333032","-0.01393999999999925"
"685","0.036689999999993006","-0.009949999999999903"
"686","0.020579999999998932","-0.009645000000002568"
"687","0.0016899999999964166","-0.0016099999999958925"
"688","0.0028200000000045597","-0.004273333333333795"
"689","0.03151499999999885","-0.005984999999999019"
"690","0.02096999999999601","-0.011140000000001038"
"691","0.0122666666666665","-0.01158666666666619"
"692","8.900000000124919E-4","-0.0036600000000035493"
"693","0.010014545454548728","-0.012184545454545705"
"694","0.051625000000001364","-0.02342499999999781"
"695","0.015573913043479963","-0.016875217391304362"
"696","0.012077000000000736","-0.01264200000000031"
"697","0.014992000000000871","-0.012436000000001002"
"698","0.0023933333333256237","-0.003166666666667576"
"699","0.0076700000000045065","-0.006880000000000663"
"700","0.14968625000000024","-0.02634124999999976"
"701","0.009660000000001409","-0.0040866666666682745"
"702","0.011614999999984832","-0.006810000000001537"
"703","0.0","0.0"
"704","0.0","0.0"
"705","0.02043999999999831","-0.008279999999999177"
"706","0.0394433333333429","-0.062123333333334564"
"707","0.0171100000000024","-8.399999999966212E-4"
"708","0.004499999999993065","-0.020690000000001874"
"709","0.021465999999998077","-0.031119999999999946"
"710","0.009675925925923442","-0.016088518518518273"
"711","0.006159999999998433","-0.006082000000000675"
"712","0.008961666666664314","-0.00947499999999953"
"713","0.003470000000000084","-0.004367499999999858"
"714","0.019451666666663908","-0.04316333333333411"
"715","0.025163333333336386","-0.01949833333333295"
"716","0.028659999999987917","-0.005080000000003082"
"717","0.026890000000001635","-0.027525000000000688"
"718","0.019679999999993925","-0.001699999999996038"
"719","0.0","0.0"
"720","0.0","0.0"
"721","0.0","0.0"
"722","0.0","0.0"
"723","0.0","0.0"
"724","0.0","0.0"
"725","0.0","0.0"
"726","0.0","0.0"
"727","0.0","0.0"
"728","0.0","0.0"
"729","0.0","0.0"
"730","0.0","0.0"
"731","0.0","0.0"
"732","0.0","0.0"
"733","0.0","0.0"
"734","0.0","0.0"
"735","0.0","0.0"
"736","0.04189555555555399","-0.02469777777777793"
"737","0.004199999999997317","-0.018720000000001846"
"738","0.0","0.0"
"739","0.013721666666668063","-0.014416666666667213"
"740","0.003910000000000006","-0.006953333333330629"
"741","0.011981000000002951","-0.009043000000000846"
"742","0.0","0.0"
"743","0.0","0.0"
"744","0.0","0.0"
"745","0.0","0.0"
"746","0.012576666666663053","-0.02055666666666589"
"747","0.0","0.0"
"748","0.0","0.0"
"749","0.013820000000009713","-0.014370000000003103"
"750","0.0","0.0"
"751","0.0","0.0"
"752","0.028157499999998947","-0.011819999999999276"
"753","0.0","0.0"
"754","0.004661428571428213","-0.005520000000000128"
"755","0.01484052631579103","-0.014865263157893674"
"756","0.009932857142855158","-0.006992857142858863"
"757","0.010285333333333332","-0.013536666666666974"
"758","0.011436666666668316","-0.017918333333330594"
"759","0.010893636363637039","-0.01530181818181766"
"760","0.022784999999998945","-0.012304999999999566"
"761","0.0","0.0"
"762","0.039470000000008554","-0.0608550000000001"
"763","0.0","0.0"
"764","0.0","0.0"
"765","0.0","0.0"
"766","0.0","0.0"
"767","0.0","0.0"
"768","0.0","0.0"
"769","0.0","0.0"
"770","0.0","0.0"
"771","0.0","0.0"
"772","0.0","0.0"
"773","0.0","0.0"
"774","0.0","0.0"
"775","0.0","0.0"
"776","0.0","0.0"
"777","0.0","0.0"
"778","0.0","0.0"
"779","0.0","0.0"
"780","0.0","0.0"
"781","0.0","0.0"
"782","0.0","0.0"
"783","0.0","0.0"
"784","0.0","0.0"
"785","0.0","0.0"
"786","0.0","0.0"
"787","0.0","0.0"
"788","0.0","0.0"
"789","0.5870064285714258","-0.33870928571428544"
"790","0.0","0.0"
"791","0.0","0.0"
"792","0.0","0.0"
"793","0.0033800000000015176","-0.0061583333333336855"
"794","0.003574444444449259","-0.003117777777777775"
"795","0.004332000000002267","-0.013697999999996569"
"796","0.0119133333333347","-0.024940000000002033"
"797","0.0","0.0"
"798","0.0","0.0"
"799","0.5418342857142824","-0.6653264285714278"
"800","0.019229999999999286","-0.010320000000001122"
"801","0.0","0.0"
"802","0.0","0.0"
"803","0.00971666666665764","-0.036990000000002965"
"804","0.013641578947364882","-0.022896315789473556"
"805","0.006370588235297452","-0.00860294117647196"
"806","0.0","0.0"
"807","0.01740333333333884","-0.007406666666665747"
"808","0.005811999999997397","-0.007108000000000914"
"809","0.047194999999998544","-0.04428749999999937"
"810","0.014093333333335067","-0.044820000000001414"
"811","0.0038850000000003604","-0.01401000000000252"
"812","0.0","0.0"
"813","0.0","0.0"
"814","0.0","0.0"
"815","0.0","0.0"
"816","0.0","0.0"
"817","0.0","0.0"
"818","0.0","0.0"
"819","0.0","0.0"
"820","0.0","0.0"
"821","0.0","0.0"
"822","0.0","0.0"
"823","0.0","0.0"
"824","0.0","0.0"
"825","0.0","0.0"
"826","0.0","0.0"
"827","0.0","0.0"
"828","0.0","0.0"
"829","0.0","0.0"
"830","0.0","0.0"
"831","0.0","0.0"
"832","0.0","0.0"
"833","0.0","0.0"
"834","0.0","0.0"
"835","0.0","0.0"
"836","0.0027100000000075397","-0.003405000000007874"
"837","0.003924285714284841","-0.007348571428574401"
"838","0.0","0.0"
"839","0.0","0.0"
"840","0.004330000000010159","-4.2000000000541604E-4"
"841","0.002546666666664995","-0.012093333333330255"
"842","0.009355833333336486","-0.021360833333332607"
"843","0.00560000000000116","-0.009509999999998797"
"844","0.0","0.0"
"845","0.0","0.0"
"846","0.012356153846158034","-0.02196846153846147"
"847","0.03586999999999563","-0.006294999999997941"
"848","0.014872500000006283","-0.01585749999999919"
"849","0.0","0.0"
"850","0.0","0.0"
"851","0.0","0.0"
"852","0.022014999999999674","-0.030475000000000918"
"853","0.025739999999998986","-0.01406599999999969"
"854","0.012585000000008506","-0.0390100000000011"
"855","0.03364999999999441","-0.032200000000003115"
"856","0.01170999999999367","-0.015279999999997074"
"857","0.005487999999996873","-0.023066000000001453"
"858","0.008977500000003857","-0.004702500000000498"
"859","0.01476499999999703","-0.02796999999999983"
"860","0.005166666666667652","-0.006240000000000616"
"861","0.0","0.0"
"862","0.0","0.0"
"863","0.0","0.0"
"864","0.0","0.0"
"865","0.0","0.0"
"866","0.0","0.0"
"867","0.0","0.0"
"868","0.0","0.0"
"869","0.0","0.0"
"870","0.0","0.0"
"871","0.0","0.0"
"872","0.001120000000000232","-0.004680000000007567"
"873","0.0","0.0"
"874","0.0","0.0"
"875","0.0","0.0"
"876","0.0","0.0"
"877","0.0","0.0"
"878","0.0","0.0"
"879","0.0","0.0"
"880","0.0","0.0"
"881","0.00788000000001432","-0.0011499999999955435"
"882","0.0","0.0"
"883","0.0011099999999970578","-0.021150000000005775"
"884","0.0038649999999904594","-0.005485000000000184"
"885","0.01110857142857721","-0.007672857142854436"
"886","6.649999999979173E-4","-0.022214999999999208"
"887","0.015694999999986692","-0.008254999999994794"
"888","0.0","0.0"
"889","0.005355999999991923","-0.02796599999999927"
"890","0.03592749999999967","-0.02231250000000351"
"891","0.0","0.0"
"892","0.0","0.0"
"893","0.0","0.0"
"894","0.0","0.0"
"895","0.0","0.0"
"896","0.018505000000011762","-0.04298499999999805"
"897","0.013306666666665024","-0.0055666666666690885"
"898","0.00585500000000394","-0.006770000000003051"
"899","0.017319999999983793","-0.012219999999992126"
"900","0.0","0.0"
"901","0.0","0.0"
"902","0.0","0.0"
"903","0.0","0.0"
"904","0.0","0.0"
"905","0.0","0.0"
"906","0.0","0.0"
"907","0.006099999999996442","-0.0036200000000050636"
"908","0.013614999999997934","-0.003710000000005209"
"909","0.01544000000000286","-0.014760000000000181"
"910","0.02347999999999691","-0.013616666666668683"
"911","0.012924000000002423","-0.01809599999999989"
"912","0.0","0.0"
"913","0.009814999999999685","-0.013289999999997804"
"914","0.002569999999998629","-0.012820000000004939"
"915","1.4999999999076863E-4","-0.00858000000000203"
"916","0.0","0.0"
"917","0.0","0.0"
"918","0.003470000000000084","-0.009560000000007562"
"919","0.0","0.0"
"920","0.0","0.0"
"921","0.0","0.0"
"922","0.004165000000000418","-0.003190000000000026"
"923","0.0061199999999956844","-0.0061199999999956844"
"924","0.015470000000000539","-0.005789999999997519"
"925","0.0035299999999978127","-0.0032700000000076557"
"926","0.002195000000000391","-0.004369999999997987"
"927","0.004959999999996967","-9.999999999976694E-4"
"928","0.005009999999998627","-0.005479999999998597"
"929","0.0012700000000052114","-0.0016599999999939996"
"930","0.0","0.0"
"931","0.020176666666663814","-0.053769999999999624"
"932","0.0","0.0"
"933","0.0","0.0"
"934","0.0","0.0"
"935","0.0","0.0"
"936","0.021027999999995474","-0.018675000000001062"
"937","0.0013699999999895833","-0.0046766666666589645"
"938","0.020823333333334897","-0.03125666666666641"
"939","0.0","0.0"
"940","0.0","0.0"
"941","0.0","0.0"
"942","0.0","0.0"
"943","0.0","0.0"
"944","0.0","0.0"
"945","0.0","0.0"
"946","0.012429999999994834","-0.005349999999996413"
"947","0.007625000000004434","-0.00919500000000184"
"948","0.0017500000000012506","-0.008090000000002817"
"949","0.007469999999993131","-0.01498666666666774"
"950","0.008470000000016853","-0.004449999999998511"
"951","0.0","0.0"
"952","0.007735000000003822","-0.006575000000001552"
"953","0.007609999999999673","-0.013780000000004122"
"954","0.003909999999990532","-0.017070000000003915"
"955","0.006229999999995073","-0.008490000000001885"
"956","0.0015900000000002024","-0.007649999999991053"
"957","0.0","0.0"
"958","0.0","0.0"
"959","0.0","0.0"
"960","0.01670999999999978","-0.016809999999999548"
"961","0.013730000000009568","-0.006759999999999877"
"962","0.0","0.0"
"963","0.0074950000000004735","-0.007342500000001806"
"964","0.009850000000004874","-0.011559999999998164"
"965","0.005006666666661867","-0.009336666666669657"
"966","0.09783000000000186","-0.009300000000003195"
"967","0.0012800000000083855","-0.0043500000000022965"
"968","0.0","0.0"
"969","0.0","0.0"
"970","0.0","0.0"
"971","0.0","0.0"
"972","0.0","0.0"
"973","0.0","0.0"
"974","0.0","0.0"
"975","0.022980000000018208","-3.300000000052705E-4"
"976","0.0025099999999866895","-0.01754999999999285"
"977","0.003440000000011878","-0.01399000000000683"
"978","0.0","0.0"
"979","0.0","0.0"
"980","0.0","0.0"
"981","0.0","0.0"
"982","0.0","0.0"
"983","0.011640526315786522","-0.012641052631578694"
"984","0.0","0.0"
"985","0.016123333333320982","-0.008383333333329782"
"986","0.0","0.0"
"987","0.0","0.0"
"988","0.0","0.0"
"989","0.0","0.0"
"990","0.0","0.0"
"991","0.0","0.0"
"992","0.0","0.0"
"993","0.0","0.0"
"994","0.0","0.0"
"995","0.0","0.0"
"996","0.0","0.0"
"997","0.0","0.0"
"998","0.0","0.0"
"999","0.0","0.0"
"1000","0.0","0.0"
"1001","0.0","0.0"
"1002","0.0","0.0"
"1003","0.0","0.0"
"1004","0.0","0.0"
"1005","0.0","0.0"
"1006","0.5367450000000034","-0.13692999999999955"
"1007","0.0","0.0"
"1008","0.009149999999994662","-0.004255000000004117"
"1009","0.00694999999999979","-0.0025099999999973477"
"1010","0.0","0.0"
"1011","0.0","0.0"
"1012","0.0","0.0"
"1013","0.0","0.0"
"1014","0.0","0.0"
"1015","0.005435000000002077","-0.010549999999998505"
"1016","0.02727999999999753","-0.030189999999997497"
"1017","0.0","0.0"
"1018","0.0","0.0"
"1019","0.033035000000005255","-0.034660000000002356"
"1020","0.002150000000014529","-0.028420000000011214"
"1021","0.0","0.0"
"1022","0.0","0.0"
"1023","0.0","0.0"
"1024","0.0","0.0"
"1025","0.0","0.0"
"1026","0.0","0.0"
"1027","0.0","0.0"
"1028","0.0","0.0"
"1029","0.0","0.0"
"1030","0.0","0.0"
"1031","0.0","0.0"
"1032","0.0","0.0"
"1033","0.0","0.0"
"1034","0.0","0.0"
"1035","0.0","0.0"
"1036","0.0","0.0"
"1037","0.0","0.0"
"1038","0.0","0.0"
"1039","0.0","0.0"
"1040","0.0","0.0"
"1041","0.0","0.0"
"1042","0.0","0.0"
"1043","0.0","0.0"
"1044","0.0","0.0"
"1045","0.0","0.0"
"1046","0.0","0.0"
"1047","0.0","0.0"
"1048","0.007326666666666408","-0.02264333333333468"
"1049","0.008974999999994182","-0.00470749999999498"
"1050","0.0","0.0"
"1051","0.005729999999999791","-0.009659999999996671"
"1052","0.0","0.0"
"1053","0.0","0.0"
"1054","0.0","0.0"
"1055","0.0","0.0"
"1056","0.0","0.0"
"1057","0.0","0.0"
"1058","0.0","0.0"
"1059","0.0","0.0"
"1060","0.0","0.0"
"1061","0.0","0.0"
"1062","0.0","0.0"
"1063","0.0","0.0"
"1064","0.0","0.0"
"1065","0.0","0.0"
"1066","0.0","0.0"
"1067","0.0","0.0"
"1068","0.0","0.0"
"1069","0.0","0.0"
"1070","0.0","0.0"
"1071","0.0","0.0"
"1072","0.0","0.0"
"1073","0.0","0.0"
"1074","0.0","0.0"
"1075","0.0","0.0"
"1076","0.0","0.0"
"1077","0.0","0.0"
"1078","0.0","0.0"
"1079","0.0","0.0"
"1080","0.0","0.0"
"1081","0.0","0.0"
"1082","0.0","0.0"
"1083","0.0","0.0"
"1084","0.0","0.0"
"1085","0.0","0.0"
"1086","0.0","0.0"
"1087","0.0","0.0"
"1088","0.0","0.0"
"1089","0.0","0.0"
"1090","0.0","0.0"
"1091","0.0","0.0"
"1092","0.0","0.0"
"1093","0.0027950000000132036","-0.0039349999999984675"
"1094","0.0049949999999938655","-0.0033799999999981623"
"1095","0.011171999999999117","-0.02306400000000224"
"1096","0.0","0.0"
"1097","0.0","0.0"
"1098","0.0","0.0"
"1099","0.0","0.0"
"1100","0.0","0.0"
"1101","0.0","0.0"
"1102","0.0","0.0"
"1103","0.0","0.0"
"1104","0.0","0.0"
"1105","0.0","0.0"
"1106","0.0","0.0"
"1107","0.0","0.0"
"1108","0.0","0.0"
"1109","0.0","0.0"
"1110","0.0","0.0"
"1111","0.0","0.0"
"1112","0.0","0.0"
"1113","0.0","0.0"
"1114","0.0","0.0"
"1115","0.0","0.0"
"1116","0.0","0.0"
"1117","0.0","0.0"
"1118","0.0","0.0"
"1119","0.0","0.0"
"1120","0.0","0.0"
"1121","0.0","0.0"
"1122","0.0","0.0"
"1123","0.0","0.0"
"1124","0.0036700000000067234","-0.011915000000001896"
"1125","0.0","0.0"
"1126","0.0","0.0"
"1127","0.0","0.0"
"1128","0.0","0.0"
"1129","0.0","0.0"
"1130","0.0","0.0"
"1131","0.0","0.0"
"1132","0.0","0.0"
"1133","0.0","0.0"
"1134","0.0","0.0"
"1135","0.0","0.0"
"1136","0.0","0.0"
"1137","0.0","0.0"
"1138","0.013885999999999399","-0.005955999999999051"
"1139","0.0068477777777770955","-0.006613703703703725"
"1140","0.00736727272727416","-0.007538181818181303"
"1141","0.009945000000001869","-0.053325000000000955"
"1142","0.0","0.0"
"1143","0.0","0.0"
"1144","0.0","0.0"
"1145","0.0","0.0"
"1146","0.0","0.0"
"1147","0.0","0.0"
"1148","0.0","0.0"
"1149","0.0","0.0"
"1150","0.0","0.0"
"1151","0.0","0.0"
"1152","0.0","0.0"
"1153","0.0","0.0"
"1154","0.0","0.0"
"1155","0.0","0.0"
"1156","0.0","0.0"
"1157","0.0","0.0"
"1158","0.0","0.0"
"1159","0.0","0.0"
"1160","0.0","0.0"
"1161","0.0","0.0"
"1162","0.0","0.0"
"1163","0.0","0.0"
"1164","0.0","0.0"
"1165","0.0","0.0"
"1166","0.0","0.0"
"1167","0.0","0.0"
"1168","0.0","0.0"
"1169","0.0","0.0"
"1170","0.0","0.0"
"1171","0.009019999999998569","-0.038890000000000056"
"1172","0.0","0.0"
"1173","0.0","0.0"
"1174","0.0","0.0"
