"cell_id","acc_x","acc_y"
"0","0.0","0.0"
"1","0.0","0.0"
"2","0.0","0.0"
"3","0.0","0.0"
"4","-0.006320000000002324","0.014140000000000263"
"5","-0.01888000000001","0.032039999999999846"
"6","0.0","0.0"
"7","-0.00538500000000397","0.009890000000000065"
"8","-7.400000000075124E-4","0.0015899999999997583"
"9","0.0","0.0"
"10","-0.015410000000017021","0.013389999999999791"
"11","-0.0013500000000021828","0.003810000000000091"
"12","-0.027709999999999013","0.016820000000000057"
"13","-0.01313000000000386","0.03500000000000014"
"14","-0.007459999999994693","0.026619999999999866"
"15","0.0","0.0"
"16","0.0","0.0"
"17","0.0","0.0"
"18","0.0","0.0"
"19","0.0","0.0"
"20","0.0","0.0"
"21","0.0","0.0"
"22","0.0","0.0"
"23","0.0","0.0"
"24","0.0","0.0"
"25","0.0","0.0"
"26","0.0","0.0"
"27","0.0","0.0"
"28","0.0","0.0"
"29","0.0","0.0"
"30","0.0","0.0"
"31","0.0","0.0"
"32","0.0","0.0"
"33","0.0","0.0"
"34","0.0","0.0"
"35","0.0","0.0"
"36","0.0","0.0"
"37","-0.01748999999999512","8.600000000000829E-4"
"38","-0.007210000000000605","0.003857499999999972"
"39","-0.007319473684212222","0.0070447368421052235"
"40","-0.0034155555555533588","0.002675555555555559"
"41","0.0","0.0"
"42","0.0","0.0"
"43","0.0","0.0"
"44","0.0","0.0"
"45","0.0","0.0"
"46","0.0","0.0"
"47","0.0","0.0"
"48","0.0","0.0"
"49","0.0","0.0"
"50","0.0","0.0"
"51","0.0","0.0"
"52","0.0","0.0"
"53","-0.006918333333332842","0.008996666666666911"
"54","0.0","0.0"
"55","0.0","0.0"
"56","0.0","0.0"
"57","0.0","0.0"
"58","0.0","0.0"
"59","0.0","0.0"
"60","0.0","0.0"
"61","0.0","0.0"
"62","0.0","0.0"
"63","-0.013859999999997541","0.007730000000000015"
"64","-0.004189999999994143","0.0012199999999999989"
"65","0.0","0.0"
"66","0.0","0.0"
"67","0.0","0.0"
"68","0.0","0.0"
"69","0.0","0.0"
"70","0.0","0.0"
"71","0.0","0.0"
"72","0.0","0.0"
"73","0.0","0.0"
"74","0.0","0.0"
"75","0.0","0.0"
"76","0.0","0.0"
"77","0.0","0.0"
"78","0.0","0.0"
"79","0.0","0.0"
"80","0.0","0.0"
"81","0.0","0.0"
"82","0.0","0.0"
"83","-0.0046749999999988745","0.0017999999999998018"
"84","-0.009296666666671172","0.0037933333333333894"
"85","0.0","0.0"
"86","0.0","0.0"
"87","0.0","0.0"
"88","-0.006534999999999513","0.00839000000000012"
"89","0.0","0.0"
"90","0.0","0.0"
"91","0.0","0.0"
"92","0.0","0.0"
"93","0.0","0.0"
"94","0.0","0.0"
"95","-0.02534999999998888","0.013009999999999522"
"96","0.0","0.0"
"97","0.0","0.0"
"98","0.0","0.0"
"99","0.0","0.0"
"100","-0.011593333333334085","0.01156166666666684"
"101","-0.03757857142857165","0.04083428571428538"
"102","-0.0057600000000004314","0.01546000000000003"
"103","0.0","0.0"
"104","0.0","0.0"
"105","0.0","0.0"
"106","0.0","0.0"
"107","0.0","0.0"
"108","0.0","0.0"
"109","0.0","0.0"
"110","0.0","0.0"
"111","0.0","0.0"
"112","-0.009905000000003383","0.007454999999999767"
"113","0.0","0.0"
"114","0.0","0.0"
"115","-0.0012500000000059686","0.005689999999999529"
"116","0.0","0.0"
"117","0.0","0.0"
"118","0.0","0.0"
"119","0.0","0.0"
"120","0.0","0.0"
"121","0.0","0.0"
"122","0.0","0.0"
"123","0.0","0.0"
"124","0.0","0.0"
"125","-0.0027799999999942315","0.015750000000000597"
"126","0.0","0.0"
"127","0.0","0.0"
"128","0.0","0.0"
"129","-0.012710000000012656","0.015185000000000226"
"130","-0.00876750000000115","0.010332499999999745"
"131","-0.01951000000001102","0.0011899999999993582"
"132","-8.599999999887586E-4","0.037809999999999455"
"133","-0.008320000000026084","0.07590999999999948"
"134","-0.003330000000005384","0.0019399999999993867"
"135","-0.014204999999999282","0.01913833333333348"
"136","-0.009145000000001366","0.012648333333333225"
"137","0.0","0.0"
"138","-0.007305000000009443","0.010070000000000245"
"139","-0.020452941176471614","0.023482941176470592"
"140","0.0","0.0"
"141","0.0","0.0"
"142","-0.0496700000000061","0.03469500000000014"
"143","0.0","0.0"
"144","0.0","0.0"
"145","0.0","0.0"
"146","-0.024049999999999017","0.05243999999999893"
"147","0.0","0.0"
"148","0.0","0.0"
"149","-0.048049999999999926","0.022380000000000955"
"150","-0.029584999999999972","0.007865000000000233"
"151","0.0","0.0"
"152","0.0","0.0"
"153","-0.02971571428571654","0.02228428571428598"
"154","-0.014310000000001483","0.007915714285714269"
"155","0.0","0.0"
"156","0.0","0.0"
"157","0.0","0.0"
"158","0.0","0.0"
"159","0.0","0.0"
"160","0.0","0.0"
"161","0.0","0.0"
"162","0.0","0.0"
"163","-0.009870000000006485","0.004750000000000476"
"164","-0.008240000000000691","0.0025700000000004053"
"165","-0.004995000000000971","0.011330000000000062"
"166","-0.00418000000000518","0.005450000000000621"
"167","0.0","0.0"
"168","0.0","0.0"
"169","0.0","0.0"
"170","0.0","0.0"
"171","0.0","0.0"
"172","0.0","0.0"
"173","0.0","0.0"
"174","-0.0034666666666680612","0.005543333333333382"
"175","-0.010600000000002297","0.006188000000000216"
"176","-0.012100000000003774","0.004194999999999727"
"177","0.0","0.0"
"178","0.0","0.0"
"179","0.0","0.0"
"180","0.0","0.0"
"181","0.0","0.0"
"182","0.0","0.0"
"183","-0.017089999999996053","0.004444000000000159"
"184","-0.002696666666674711","0.0036166666666665273"
"185","-0.008866666666657844","0.00908333333333348"
"186","-0.0048300000000125465","0.008080000000000531"
"187","0.0","0.0"
"188","0.0","0.0"
"189","-0.044820000000001414","0.026479999999999393"
"190","0.0","0.0"
"191","-0.00394625000000004","0.00966250000000013"
"192","-0.004615000000000258","0.006240000000000023"
"193","0.0","0.0"
"194","-0.03281999999999918","0.03425999999999796"
"195","-0.013259999999999827","0.03188499999999994"
"196","-0.02849599999999839","0.022015999999999637"
"197","-0.0013299999999958345","5.999999999772854E-5"
"198","-0.04021666666666669","0.033266666666667395"
"199","-0.02712799999999902","0.026572000000000172"
"200","0.0","0.0"
"201","0.0","0.0"
"202","0.0","0.0"
"203","0.0","0.0"
"204","0.0","0.0"
"205","0.0","0.0"
"206","0.0","0.0"
"207","0.0","0.0"
"208","0.0","0.0"
"209","0.0","0.0"
"210","0.0","0.0"
"211","0.0","0.0"
"212","0.0","0.0"
"213","0.0","0.0"
"214","-0.00531000000000148","0.007369999999999877"
"215","-0.028289999999998372","0.029760000000000453"
"216","-0.007044999999994417","0.004755000000001175"
"217","0.0","0.0"
"218","-0.011249999999989768","0.003090000000000259"
"219","0.0","0.0"
"220","-0.003380000000007044","0.0014300000000009305"
"221","-0.009340000000008786","0.009210000000000385"
"222","0.0","0.0"
"223","-0.0017299999999949023","0.016164999999999985"
"224","0.0","0.0"
"225","0.0","0.0"
"226","0.0","0.0"
"227","-0.033093333333335785","0.05391333333333215"
"228","0.0","0.0"
"229","-0.02050000000001262","0.016239999999998034"
"230","-0.007200000000000983","0.011116250000000272"
"231","-0.020153888888886386","0.01700388888888889"
"232","0.0","0.0"
"233","0.0","0.0"
"234","0.0","0.0"
"235","0.0","0.0"
"236","-0.02293333333333199","0.024159999999998998"
"237","0.0","0.0"
"238","-0.013295999999996866","0.015822000000000714"
"239","-0.006833888888889324","0.01001611111111098"
"240","-0.0284899999999908","0.04328000000000287"
"241","0.0","0.0"
"242","0.0","0.0"
"243","0.0","0.0"
"244","-0.010606666666666579","0.019393333333333374"
"245","-0.03212437500000087","0.021454374999999914"
"246","-0.01998999999999924","0.0169279999999997"
"247","-0.020509999999999213","0.03307000000000097"
"248","-0.019009999999999156","0.04062333333333316"
"249","0.0","0.0"
"250","-0.010829999999991458","0.027389999999996917"
"251","0.0","0.0"
"252","-0.015470000000004092","0.02438999999999858"
"253","-0.002490000000008763","0.01474000000000153"
"254","-0.01144999999999996","0.018769999999999065"
"255","-0.010459999999997175","0.006346666666666796"
"256","-0.005180000000002849","0.014520000000000977"
"257","0.0","0.0"
"258","0.0","0.0"
"259","-0.006873333333333657","0.008826666666666464"
"260","-0.0010949999999958493","0.011960000000000193"
"261","-0.004205000000002457","0.006304999999999339"
"262","0.0","0.0"
"263","-0.007374999999999687","0.006839999999998625"
"264","-0.008240000000000691","0.004129999999999967"
"265","-0.006950000000003342","0.011489999999998446"
"266","-7.999999999981355E-4","0.010070000000002466"
"267","-0.008485000000000298","0.009065000000000545"
"268","-0.009587500000000304","0.006893749999999699"
"269","-0.013905000000001166","0.004140000000002253"
"270","-0.00959666666666692","0.005886666666666447"
"271","-0.01621749999999267","0.012495000000001255"
"272","-0.00904600000000073","0.005455999999999742"
"273","-0.015636666666668474","0.012933333333333153"
"274","-0.030906111111109327","0.026036111111111322"
"275","-0.03305249999999482","0.01279375000000016"
"276","-0.02311642857143324","0.015845714285714303"
"277","-0.003552857142848","0.0021171428571441658"
"278","-0.0054469444444443915","0.006189444444444408"
"279","0.0","0.0"
"280","0.0","0.0"
"281","0.0","0.0"
"282","0.0","0.0"
"283","0.0","0.0"
"284","-0.030717500000001507","0.03691000000000022"
"285","-0.014120967741936268","0.020156129032257917"
"286","-0.02037799999999983","0.015369333333333835"
"287","-0.01758749999999981","0.02375906249999976"
"288","-0.019704999999997863","0.015040000000000164"
"289","-0.01897349999999882","0.017176999999999953"
"290","-0.00852000000000075","0.01623749999999946"
"291","-0.01847500000000224","0.07057000000000047"
"292","-0.032654999999997436","0.05641500000000077"
"293","-0.018246363636364036","0.014760000000000127"
"294","-0.00747285714285744","0.008504285714285789"
"295","-0.014409999999998035","0.02361000000000013"
"296","-0.009194999999998288","0.037622500000000336"
"297","-0.006240000000000616","0.0037300000000008993"
"298","-0.00420000000000087","0.008684999999999832"
"299","-3.9000000000299906E-4","0.003999999999997783"
"300","-0.01208499999999546","0.019599999999999618"
"301","0.0","0.0"
"302","0.0","0.0"
"303","-0.008954999999996716","0.01087749999999943"
"304","-0.003612500000002683","0.00401499999999988"
"305","-0.008726666666665514","0.007246666666666475"
"306","-0.005635000000001611","0.0030999999999998806"
"307","-0.0016749999999987608","0.007294999999999163"
"308","-0.013494999999998925","0.006605000000000416"
"309","-0.002416666666663995","0.008856666666665921"
"310","-0.005973333333332202","0.011116666666666811"
"311","-0.005543999999997595","0.0050940000000000655"
"312","-0.007478333333332661","0.009468333333333412"
"313","-0.005799999999997851","0.007047999999999633"
"314","-0.009236666666666338","0.022143333333333477"
"315","-0.004835000000007028","0.007604999999998974"
"316","-0.007423333333330599","0.003086666666667052"
"317","-0.006393333333330513","0.0037599999999997635"
"318","-0.006050000000001887","0.008320000000001215"
"319","-0.004080000000016071","0.0035999999999987153"
"320","-0.008234285714287299","0.009603809523809506"
"321","-0.013242727272730742","0.010774545454545632"
"322","-0.005460000000007249","0.008790000000000001"
"323","-0.017408636363637955","0.010508181818181745"
"324","-0.02047952380952587","0.022278095238095524"
"325","-0.35067864864864867","0.2873981081081078"
"326","-0.009706250000006023","0.00647000000000042"
"327","-0.006230000000002178","0.0016400000000018622"
"328","-0.009041538461536684","0.009775384615384434"
"329","0.0","0.0"
"330","-0.022716451612902602","0.014868064516129152"
"331","-0.037873333333335917","0.04626777777777688"
"332","-0.01914459459459362","0.013137297297297281"
"333","-0.011138488372092806","0.011095116279069943"
"334","-0.012215777777777524","0.011232000000000002"
"335","-0.020610909090908226","0.024848636363636233"
"336","-0.02958166666666869","0.028604166666666615"
"337","-0.008247142857141756","0.014018571428570072"
"338","-0.04211125000000138","0.0422075000000004"
"339","-0.0430166666666724","0.03306999999999979"
"340","-0.02543624999999805","0.014037500000000147"
"341","-0.04194600000000363","0.02561200000000028"
"342","-0.037403749999997515","0.02159999999999984"
"343","-0.023986000000000018","0.02900800000000068"
"344","-0.035370769230769546","0.029506153846154"
"345","-0.04535000000000196","0.03720999999999961"
"346","-0.03991999999999862","0.018110000000001847"
"347","-0.02872333333333188","0.026816666666667526"
"348","-0.01691333333333489","0.012326666666667782"
"349","-0.014899999999999617","0.03176333333333344"
"350","-0.010922000000000764","0.006251999999999924"
"351","-0.0024260000000012384","0.010076000000000463"
"352","-0.009167500000001993","0.007412500000000044"
"353","0.0","0.0"
"354","-4.100000000022419E-4","2.6000000000081513E-4"
"355","-0.002450000000003172","0.00391000000000119"
"356","-0.003389999999993639","0.00535000000000115"
"357","-0.0018699999999967076","0.008149999999999658"
"358","-0.014548571428572845","0.008261428571428706"
"359","-0.015070000000001471","0.02806666666666698"
"360","-0.01425800000000237","0.006886000000000436"
"361","-0.00922999999999874","0.015554999999999541"
"362","-0.013380000000002687","0.028829999999998652"
"363","-0.019647500000001372","0.012304999999999122"
"364","-0.01844874999999746","0.005716250000000089"
"365","-0.007699999999999818","0.014636666666667372"
"366","0.0","0.0"
"367","-0.010874545454543945","0.013888636363636615"
"368","-0.013496470588237611","0.015907058823529184"
"369","-0.007303666666666212","0.011458333333332979"
"370","-0.015005428571429644","0.0160300000000004"
"371","-0.014230434782610286","0.020096086956521382"
"372","-0.10632909090909172","0.26089999999999963"
"373","-0.008786249999999995","0.006921250000000434"
"374","-0.006370000000003984","0.007153333333333715"
"375","-0.010704999999994413","0.007992499999999847"
"376","0.0","0.0"
"377","-0.019565333333334115","0.0129275555555552"
"378","-0.019558800000000556","0.019530799999999432"
"379","-0.020389166666666902","0.013817499999998853"
"380","-0.010961309523809788","0.01193833333333348"
"381","-0.008708529411762863","0.017417941176470633"
"382","-0.020086111111111273","0.02604000000000016"
"383","-0.01725578947368502","0.014648947368421168"
"384","-0.011880000000000309","0.01998240000000088"
"385","-0.34721413043478283","0.16247543478260837"
"386","-0.010545000000000027","0.016465000000000396"
"387","-0.016695714285713086","0.016428571428571712"
"388","-0.013552666666666843","0.014500000000000075"
"389","-0.03395379310344919","0.029761034482758637"
"390","-0.026796666666667808","0.024982666666667087"
"391","-0.020848333333332764","0.03587500000000077"
"392","-0.008050000000004331","0.002009999999998513"
"393","-0.05080249999999964","0.027597500000001496"
"394","-0.02404000000000058","0.03633999999999856"
"395","-0.0297766666666656","0.02507666666666471"
"396","-0.01175999999999533","0.0025699999999950762"
"397","-0.02265333333333075","0.012826666666668984"
"398","-0.003470000000000084","0.015455000000001107"
"399","-0.00739333333333055","0.010389999999999825"
"400","-0.010679999999993584","0.01058499999999718"
"401","-0.006340000000001567","0.0037100000000016564"
"402","-0.015322500000001682","0.0036599999999999966"
"403","-0.029450000000004195","0.004769999999997054"
"404","0.0","0.0"
"405","-0.003330000000005384","7.399999999968543E-4"
"406","-0.007899999999999352","0.006220000000002557"
"407","-0.01372374999999515","0.005012500000000308"
"408","-0.0071600000000103135","0.005507999999996116"
"409","-0.006323333333322505","0.002540000000002133"
"410","-0.03176666666666961","0.012016666666665307"
"411","-0.01290857142858012","0.010960000000000239"
"412","-0.026199444444443207","0.021294444444443568"
"413","-1.1036601886792468","0.2133094339622644"
"414","-0.01025023809523839","0.008781428571428137"
"415","-0.2623097727272717","0.39627500000000015"
"416","-0.01581086956521769","0.014906086956520997"
"417","-0.03518687499999862","0.027778750000000962"
"418","-0.01583042553191207","0.017439574468085084"
"419","-0.013397187500001184","0.017110156250000286"
"420","-0.029290588235292434","0.026809411764706387"
"421","0.0","0.0"
"422","0.0","0.0"
"423","-0.018864999999998133","0.020494999999998598"
"424","-0.016336000000003015","0.010465000000000658"
"425","-0.03379660714285674","0.0351094642857146"
"426","-0.039583846153846435","0.022023076923075882"
"427","-0.02174066666666654","0.01683266666666796"
"428","-0.011298636363636523","0.019074090909090492"
"429","-0.017517241379308476","0.018023793103448548"
"430","-0.026342222222221896","0.035490000000001326"
"431","-0.048315000000000996","0.019867500000001037"
"432","-0.016505333333331627","0.02073533333333349"
"433","-0.023054615384616832","0.01633076923076943"
"434","-0.019798947368420944","0.015036842105263267"
"435","-0.017104615384614982","0.022753846153846416"
"436","-0.030134166666666573","0.016199166666667136"
"437","-0.027745294117648915","0.023342352941175735"
"438","-0.03575571428571373","0.02650285714285821"
"439","-0.013052500000000578","0.01802500000000018"
"440","-0.012372500000001452","0.023117499999997904"
"441","-0.012314999999997411","0.008915000000000006"
"442","-0.05385666666666585","0.048660000000000515"
"443","-0.0050233333333361925","0.006556666666665952"
"444","-0.02601999999999549","0.02054000000000163"
"445","-0.008590000000001652","0.008079999999999643"
"446","-0.01044000000000267","0.004829999999998336"
"447","-0.01958999999999378","0.007770000000000721"
"448","-0.004599999999996385","0.0042899999999974625"
"449","0.0","0.0"
"450","-0.007464999999999833","0.011589999999999101"
"451","-0.016782499999996148","0.008027499999999854"
"452","-0.010344999999993831","0.007904999999999163"
"453","-0.009506666666664406","0.008830000000003224"
"454","-0.010430000000013706","0.003920000000000812"
"455","-0.011643333333334263","0.01001000000000237"
"456","-0.010259333333337395","0.01262466666666621"
"457","-0.006881428571430449","0.008474285714285148"
"458","-0.04147999999999641","0.033454999999998236"
"459","-0.013436315789476794","0.01273315789473759"
"460","-0.018249999999999034","0.020318333333333053"
"461","-0.032428888888885704","0.016885555555555005"
"462","-0.012351599999998939","0.010998000000000303"
"463","-0.009639500000002243","0.012171999999998916"
"464","-0.022156785714286746","0.02245964285714308"
"465","-0.007929166666666987","0.014565833333332575"
"466","-0.017097894736841413","0.03450289473684209"
"467","-0.025273030303029204","0.01834969696969701"
"468","-0.03172666666666165","0.017338333333333605"
"469","0.0","0.0"
"470","-0.019975000000002296","0.0122049999999998"
"471","-0.029516000000000497","0.03797799999999825"
"472","-0.04029483870967685","0.038109032258064085"
"473","-0.0297700000000012","0.03709933333333405"
"474","-0.04229000000000238","0.05367750000000049"
"475","-0.043519999999999004","0.05529750000000022"
"476","-0.023242432432432257","0.02373999999999971"
"477","-0.06147200000000232","0.04536000000000016"
"478","-0.03264099999999921","0.023073500000000812"
"479","-0.025160588235291843","0.02744588235294162"
"480","-0.013589230769230635","0.017981538461538202"
"481","-0.018454666666666952","0.017789333333333938"
"482","-0.023308125000001123","0.02511875000000119"
"483","-0.022205000000003493","0.034405999999998826"
"484","-0.020017619047618125","0.02436380952380918"
"485","-0.023682380952380015","0.01593619047619062"
"486","-0.018087812499999134","0.013945937499999617"
"487","-0.029024166666667444","0.024961666666667288"
"488","-0.016391666666669618","0.013751666666667125"
"489","-0.013234545454544389","0.008144545454545238"
"490","-0.0365700000000011","0.022062499999999652"
"491","-0.030160000000002185","0.00917000000000101"
"492","0.0","0.0"
"493","-0.0050299999999990535","0.01305500000000078"
"494","-0.009838000000002012","0.01352799999999874"
"495","-0.0011899999999940292","0.02178999999999931"
"496","-0.016980000000000217","0.008864999999998346"
"497","-0.004391999999998575","0.009996000000000293"
"498","-0.002525000000002109","0.010475000000001344"
"499","-0.013335999999999616","0.006544000000000239"
"500","-0.0026600000000035116","0.006113333333332823"
"501","-0.019317272727272957","0.027729090909090492"
"502","-0.009762222222219761","0.006641111111110752"
"503","-0.017566999999998244","0.03450200000000052"
"504","-0.014861818181817522","0.009140909090908618"
"505","-0.019317272727274893","0.0206868181818184"
"506","-0.015078749999997143","0.021627500000000577"
"507","-0.02092156250000099","0.02618609374999975"
"508","-0.016816800000001422","0.02498039999999989"
"509","-0.02277142857142727","0.01669428571428609"
"510","-0.014232000000001221","0.017577714285714512"
"511","-0.015468888888894602","0.019128888888888678"
"512","-0.01733068965517136","0.023346551724137486"
"513","-0.021903999999998404","0.02230920000000026"
"514","-0.017786585365853494","0.01488414634146317"
"515","-0.013388823529411679","0.016968235294117475"
"516","-0.012844090909091867","0.013522272727273042"
"517","-0.01653333333333336","0.027166666666668487"
"518","-0.030098000000004326","0.030953333333333433"
"519","-0.04261787878787949","0.041462424242424654"
"520","-0.04762620689655296","0.05013241379310319"
"521","-0.036029999999998286","0.03868666666666664"
"522","-0.0312861111111129","0.03765888888888943"
"523","-0.019039166666670344","0.046280833333333625"
"524","-0.019994444444443142","0.03130944444444496"
"525","-0.018004545454549516","0.014699090909091243"
"526","-0.015919166666663227","0.012429166666667157"
"527","-0.0109038461538493","0.008838461538461163"
"528","-0.015746250000002293","0.00832625000000009"
"529","-0.024084782608696287","0.020492608695652097"
"530","-0.027903846153846026","0.022660384615384315"
"531","-0.029068666666664456","0.020828666666666842"
"532","-0.012791562499999132","0.011098124999999848"
"533","-0.016140625000000464","0.022176562500000108"
"534","-0.0131366666666658","0.018258888888888585"
"535","-0.014128124999998715","0.011786875000000085"
"536","-0.011790000000003274","0.015602222222221704"
"537","-0.011757692307693465","0.01630461538461548"
"538","-0.02372285714285941","0.013214285714284861"
"539","-0.00868199999999959","0.010969999999998592"
"540","-0.01635000000000038","0.008921666666667013"
"541","-0.010912222222224778","0.011854444444444882"
"542","-0.00897285714285699","0.009477857142856141"
"543","-0.012191666666667563","0.015253333333333785"
"544","-0.016494000000004404","0.00816599999999994"
"545","-0.01621000000000237","0.007045999999999708"
"546","-0.014592857142850286","0.011388571428572192"
"547","-0.005366666666663633","0.01349000000000089"
"548","-0.023567499999995967","0.02442000000000011"
"549","-0.012830909090910387","0.0038354545454540364"
"550","-0.022889999999999116","0.014218333333332507"
"551","-0.014160555555555732","0.00827222222222347"
"552","-0.011338484848484617","0.008889393939394055"
"553","-0.009107499999998936","0.011209000000000292"
"554","-0.9275453571428594","0.19560946428571388"
"555","-0.020932727272724803","0.011976363636363856"
"556","-0.02372911764706027","0.023099999999999978"
"557","-0.018982666666668042","0.019158666666666827"
"558","-0.026499999999995083","0.02583750000000018"
"559","-0.03447448275862149","0.03731310344827542"
"560","-0.022426388888888087","0.04369611111111135"
"561","-0.0164769999999983","0.022491000000000306"
"562","-0.034325641025642555","0.0279382051282047"
"563","-0.028584444444445484","0.027267037037036833"
"564","-0.014775999999999945","0.015491999999999706"
"565","-0.028440000000000243","0.034611249999999316"
"566","-0.02642809523809761","0.0027038095238093468"
"567","-0.026567272727272086","0.010761363636363668"
"568","-0.034121666666662165","0.010480000000002931"
"569","-0.04780894736841888","0.004540526315789045"
"570","-0.029087500000001487","0.0015150000000000812"
"571","-0.032014999999998954","-0.004454285714285078"
"572","-0.011856000000000932","0.02182200000000094"
"573","-0.2804249090909083","0.055177090909090766"
"574","-0.009317727272726083","0.004300909090909047"
"575","-0.0072009523809514675","0.012267142857142335"
"576","-0.01604291666666609","0.010785833333333125"
"577","-0.015432857142857057","0.008228571428571538"
"578","-0.020286153846154613","0.006150384615385025"
"579","-0.01580500000000029","0.008639285714285247"
"580","-0.01742499999999995","0.019050833333333905"
"581","-0.018640588235292074","0.007191176470588508"
"582","-0.01101347826087076","0.008365217391305241"
"583","-0.012801500000000132","0.004765499999999356"
"584","-0.01347300000000189","0.008405999999999381"
"585","-0.009210000000000385","0.0033037500000001607"
"586","-0.0023374999999958845","0.010540000000001548"
"587","-0.014519166666668562","0.00659833333333341"
"588","-0.013442500000000024","-0.012245000000001838"
"589","-0.020349999999998165","-0.007796666666665193"
"590","-0.008563999999999794","-0.003981000000000279"
"591","-0.012765833333332921","-0.006319999999999955"
"592","-0.019997000000001465","-0.01303399999999968"
"593","-0.014001111111111995","-0.020719999999999947"
"594","-0.011995263157894436","-0.007723157894737092"
"595","-0.02225615384615491","-0.023315384615384113"
"596","-0.014791052631577142","-0.007299473684211297"
"597","-0.018843000000000387","-0.005217999999999279"
"598","-0.011890000000002081","-0.01366785714285663"
"599","-0.013710645161289621","-0.0144225806451616"
"600","-0.01225446428571456","-0.0035291071428575904"
"601","-0.014238970588234631","-0.005314117647059626"
"602","-0.019944242424244002","-0.0061554545454552394"
"603","-0.05859659574468032","0.004968723404254903"
"604","-0.026482820512822077","0.002581538461538658"
"605","-0.0313065789473688","-0.012994210526315442"
"606","-0.018816481481481056","-1.8851851851914498E-4"
"607","-0.050028730158731924","-0.008423333333333569"
"608","-0.0950755172413774","-0.06404879310344795"
"609","-0.037192592592591965","-0.00840074074074061"
"610","-0.027925945945944754","-0.003715675675675869"
"611","-0.036766666666666614","-0.04840333333333291"
"612","-0.02723066666666701","-0.021541333333333766"
"613","-0.029076086956522595","-0.026848260869565033"
"614","-0.02442851851851827","-0.07080333333333308"
"615","-0.017243529411767485","-0.04418058823529424"
"616","-0.028372500000000134","-0.048345000000000304"
"617","-0.01985499999999618","-0.013542499999998903"
"618","-0.018025555555557047","-0.019732222222222855"
"619","-0.010441999999999752","-0.01911000000000058"
"620","-0.008728947368420998","-0.017721052631580466"
"621","-0.029586666666665096","-0.09787750000000006"
"622","-0.018716000000000576","-0.015577999999999292"
"623","-0.004489999999996996","-0.04220500000000449"
"624","-0.005542500000002448","-0.015885000000000815"
"625","-0.017013999999998457","-0.0165820000000006"
"626","-0.015516999999999115","-0.01396699999999953"
"627","-0.01834999999999973","-0.011458461538461452"
"628","-0.01758263157894833","-0.01085999999999967"
"629","-0.03089285714285645","-0.011845714285713984"
"630","-0.01064400000000063","-0.005703333333333897"
"631","-0.00783538461538532","-0.011278461538461161"
"632","-0.010843809523809086","-0.013449047619046845"
"633","-0.015635454545457863","-0.008192727272726847"
"634","-0.01349800000000414","-0.012138000000000915"
"635","-0.009357777777777996","-0.00939222222222232"
"636","-0.012507333333333292","-0.0156320000000008"
"637","-0.027823000000001485","-0.019179000000000456"
"638","-0.023989999999997735","-0.014498333333333354"
"639","-0.02411999999999895","-0.017541818181818124"
"640","-0.020091874999999426","-0.020733750000000883"
"641","-0.019222857142859238","-0.014907142857143134"
"642","-0.03794916666666618","-0.036227083333332764"
"643","-0.02612096774193552","-0.01864225806451622"
"644","-0.02240499999999983","-0.017634499999999952"
"645","-0.010177499999998396","-0.007290625000000661"
"646","-0.019879523809522192","-0.007501428571428294"
"647","-0.013186666666668071","-0.017021754385964795"
"648","-0.011509193548387853","-0.015536612903225657"
"649","0.0","0.0"
"650","-0.0173108571428559","-0.013194285714285924"
"651","-0.029327333333334118","-0.027022999999999322"
"652","-0.0337374074074064","-0.032419259259259335"
"653","-0.03364916666666703","-0.04219604166666661"
"654","-0.028022043010751577","-0.028654623655914285"
"655","-0.027992345679012907","-0.03480407407407383"
"656","-0.013083749999999839","-0.020078750000000145"
"657","-0.01934159999999906","-0.020360399999999713"
"658","-0.05657000000000001","-0.07246000000000308"
"659","-0.027353999999999788","-0.04735000000000156"
"660","-0.016661999999995382","-0.025786000000000087"
"661","-0.02070249999999918","-0.03421999999999977"
"662","-0.023965454545454665","-0.03527272727272743"
"663","-0.03132099999999873","-0.0488709999999994"
"664","-0.023015833333333752","-0.02068916666666709"
"665","-0.016568333333334136","-0.028515000000000314"
"666","-0.018736923076923463","-0.021277692307692976"
"667","-0.7357282222222226","-0.41006044444444445"
"668","-0.0064329999999987566","-0.004496999999999929"
"669","-0.017103333333332433","-0.024173333333334785"
"670","-0.01784799999999791","-0.0059340000000013046"
"671","-0.010343846153849458","-0.007294615384614699"
"672","-0.01663299999999914","-0.01777799999999985"
"673","-0.013094999999999373","-0.009560454545454178"
"674","-0.009259374999999848","-0.007702812499999712"
"675","-0.00967857142857095","-0.004375714285714594"
"676","-0.009703571428570257","-0.011721428571428914"
"677","-0.013349999999999085","-0.016168333333332896"
"678","-0.023811250000002282","-0.013712499999999572"
"679","-0.039815833333335014","-0.0271616666666666"
"680","-0.015275000000000224","-0.011465000000000577"
"681","-0.030026000000000153","-0.01785499999999942"
"682","-0.012723499999999888","-0.011218000000000927"
"683","-0.018888823529409935","-0.011477058823529184"
"684","-0.013963333333333121","-0.02132533333333247"
"685","-0.0221899999999999","-0.02185071428571434"
"686","-0.027079999999998786","-0.023648888888890066"
"687","-0.02509749999999844","-0.02411500000000011"
"688","-0.027731428571430326","-0.021198571428572826"
"689","-0.011958571428567868","-0.02306571428571453"
"690","-0.017281666666666713","-0.010296666666667065"
"691","-0.020249047619046223","-0.018816190476190882"
"692","-0.02331071428571566","-0.01961428571428517"
"693","-0.016971428571428606","-0.021620714285714677"
"694","-0.020738636363633003","-0.017429545454545125"
"695","-0.015485000000001156","-0.020954791666667177"
"696","-0.01391068965517269","-0.01606241379310361"
"697","-0.012771379310345604","-0.01612310344827544"
"698","-0.027533043478261795","-0.03345000000000028"
"699","-0.020503333333335327","-0.020681333333333402"
"700","-0.023165535714283893","-0.017946071428571297"
"701","-0.01743680555555728","-0.027850277777777748"
"702","-0.028217916666665843","-0.0486495833333335"
"703","-0.03818857142857114","-0.03186928571428587"
"704","-0.019504166666666656","-0.014089166666667005"
"705","0.0","0.0"
"706","-0.029183846153846078","-0.03581384615384746"
"707","-0.013116153846152901","-0.011029230769228623"
"708","-0.013084827586206372","-0.011974137931034814"
"709","0.0","0.0"
"710","-0.02610499999999975","-0.016972083333334147"
"711","-0.01707500000000195","-0.02449357142857167"
"712","-0.005938124999999905","-0.011003749999999535"
"713","-0.01516916666666468","-0.013528333333333956"
"714","-0.0068566666666695164","-0.00886400000000028"
"715","-0.03905239999999879","-0.03731400000000079"
"716","0.0","0.0"
"717","-0.0016566666666714507","-0.009330000000002059"
"718","-0.02297692307692282","-0.009368461538461322"
"719","-0.018986500000001703","-0.011364499999999467"
"720","-0.012909090909092475","-0.00915909090909104"
"721","-0.012145714285713791","-0.005444285714285156"
"722","-0.008339999999994064","-0.010417999999998529"
"723","-0.005993333333331445","-0.006905000000000309"
"724","-0.013685000000000258","-0.009340999999999511"
"725","-0.007459999999994693","-0.007080000000001974"
"726","-0.010951666666664769","-0.00956166666666706"
"727","-0.01974888888888889","-0.014880000000001163"
"728","-0.012939999999996843","-0.010805000000000842"
"729","-0.020703333333332335","-0.018646666666664185"
"730","-0.027110000000002188","-0.016004999999998937"
"731","-0.0072883333333351175","-0.011389999999999864"
"732","-0.019294444444443885","-0.01279444444444443"
"733","-0.010298333333334853","-0.00864666666666647"
"734","-0.02119999999999978","-0.013463076923076646"
"735","-0.016258888888887983","-0.00872888888888923"
"736","-0.01404714285714245","-0.005671428571428042"
"737","-0.03224875000000349","-0.020469999999999988"
"738","-0.02949545454545185","-0.033592727272726754"
"739","-0.013599090909087347","-0.010995454545455889"
"740","-0.013909166666669748","-0.020685833333332553"
"741","-0.0226251020408144","-0.019544081632652928"
"742","-0.026760408163264814","-0.037243469387755794"
"743","-0.013654642857141448","-0.0201575000000004"
"744","-0.011229347826089014","-0.010182934782608663"
"745","-0.08844386363636274","-0.08730249999999976"
"746","-0.015864705882355883","-0.01992235294117585"
"747","-0.01650829787234051","-0.023211914893617076"
"748","-0.01911472972972974","-0.018671891891891095"
"749","-0.022195405405402713","-0.02795756756756777"
"750","-0.030071818181818862","-0.01564818181818175"
"751","0.0","0.0"
"752","-0.02179500000000001","-0.028489999999997906"
"753","-0.007077878787879618","-0.006402424242424523"
"754","-0.01410529411764712","-0.012488823529410538"
"755","-0.007807400000000424","-0.010961600000000403"
"756","-0.37866799999999934","-0.1317858749999997"
"757","-0.06743054945054998","-0.06204428571428528"
"758","-0.014841111111114932","-0.02321999999999886"
"759","-0.013033333333332902","-0.015573809523809854"
"760","-0.014695199999998963","-0.008947999999998615"
"761","-0.009762604166667077","-0.007556041666667346"
"762","-0.015193783783783546","-0.01356918918918929"
"763","-0.015780666666666814","-0.014861999999999872"
"764","-0.024959999999998064","-0.017793571428570538"
"765","-0.012529285714286433","-0.009197142857141825"
"766","-0.017394999999999605","-0.012592500000000229"
"767","-0.002920000000001366","-0.007855000000002832"
"768","-0.006042142857142758","-0.008190000000000808"
"769","-0.014705000000004631","-0.016697500000001142"
"770","-0.007315999999995881","-0.010905999999997107"
"771","-0.005454285714287315","-0.01109428571428493"
"772","-0.008762727272727876","-0.015265454545452169"
"773","-0.010029999999999135","-0.007538181818181303"
"774","-0.007479999999999463","-0.008434444444445275"
"775","-0.007919999999999306","-0.004327999999998511"
"776","-0.016263333333331076","-0.005083333333333921"
"777","-0.012680000000006686","-0.017930000000003332"
"778","-0.009611999999999909","-0.00686799999999863"
"779","-0.011130000000001417","-0.015320000000000888"
"780","-0.00723666666666863","-0.007719999999996692"
"781","-0.005366363636364921","-0.01064636363636366"
"782","-0.011279999999998699","-0.01573583333333713"
"783","-0.011662083333333406","-0.01593208333333444"
"784","-0.022590714285716525","-0.01197071428571255"
"785","-0.00816733333333275","-0.00747199999999945"
"786","-0.030160555555557918","-0.024496111111109227"
"787","-0.019915652173913802","-0.0137973913043482"
"788","-0.028227659574466324","-0.025869361702127492"
"789","-0.18215890625000042","-0.19226484375000052"
"790","-0.012146499999997928","-0.015871500000001326"
"791","-0.009640666666666676","-0.009438166666666052"
"792","-0.012578939393940163","-0.011328333333333216"
"793","-0.013162931034482862","-0.01367844827586195"
"794","-0.014514133333333538","-0.015023466666667293"
"795","-0.023733712121212912","-0.05565647727272709"
"796","-0.35649781249999934","-0.40474968749999957"
"797","0.0","0.0"
"798","0.0","0.0"
"799","-0.004657500000000037","-0.006812500000000554"
"800","-0.012440000000000229","-0.00934000000000168"
"801","-0.010102580645161062","-0.010417419354839483"
"802","-0.013735999999998612","-0.012134800000000326"
"803","-0.02169588235293778","-0.01781764705882401"
"804","-0.018165128205127692","-0.016048461538461494"
"805","-0.013770512820510561","-0.013772307692309372"
"806","-0.010580416666666315","-0.011368125000000173"
"807","-0.011799090909091004","-0.010825151515151338"
"808","-0.019111176470587393","-0.01299852941176487"
"809","-0.013665671641791435","-0.016859850746268758"
"810","-0.0597025000000014","-0.06019749999999983"
"811","-0.01204857142857106","-0.01112499999999983"
"812","-0.0037866666666701576","-0.00549999999999784"
"813","-0.0032068181818172485","-0.006595909090909205"
"814","-0.008040000000001666","-0.006869999999997235"
"815","-0.0040863157894734355","-0.007929473684209884"
"816","-0.0048049999999998745","-0.004075000000002642"
"817","-0.008792499999998427","-0.015409999999999258"
"818","-0.005297500000001953","-0.014486249999998257"
"819","-0.01072749999999889","-0.01346124999999887"
"820","0.0","0.0"
"821","-0.004305000000002224","-0.014034999999999798"
"822","-0.0030599999999978422","-0.0034799999999926"
"823","-0.014525000000002564","-0.004290000000001015"
"824","-0.007805000000001172","-0.003232499999997529"
"825","-0.010934999999996364","-0.009719999999997953"
"826","-0.016039999999999388","-0.007363749999999669"
"827","-0.012567777777779239","-0.009068888888888202"
"828","-0.016110000000001574","-0.014266666666668945"
"829","-0.009773750000003467","-0.014952499999997038"
"830","-0.005934999999996175","-0.009558333333332078"
"831","-0.011939166666667353","-0.014469999999999317"
"832","-0.009709583333332716","-0.009125833333333944"
"833","-0.01206176470588235","-0.014135294117646508"
"834","-0.014940384615385938","-0.0076396153846146194"
"835","-0.017612857142856746","-0.019380714285714213"
"836","-0.006889999999999219","-0.006009749999999947"
"837","-0.007611666666665684","-0.00569249999999677"
"838","-0.007131875000000676","-0.008580625000000008"
"839","-0.0043983333333328135","-0.008979999999997941"
"840","-0.00782151515151177","-0.009473636363636753"
"841","-0.0051583018867906935","-0.00805207547169801"
"842","-0.01272727272727278","-0.014611818181817835"
"843","-0.042546111111114726","-0.2617499999999995"
"844","0.0","0.0"
"845","0.0","0.0"
"846","-0.008528181818181834","-0.016129090909091367"
"847","-0.007275000000000069","-0.019498333333332358"
"848","-0.011306451612903893","-0.015176774193548681"
"849","-0.01996038461538511","-0.020263076923076103"
"850","-0.017157894736841012","-0.018894473684211283"
"851","-0.014605714285716331","-0.008320714285713697"
"852","-0.01781382352940962","-0.015883823529411787"
"853","-0.008444848484850033","-0.008714242424241634"
"854","-0.0052428571428568506","-0.00810571428571397"
"855","-0.010674285714287635","-0.02807428571428667"
"856","-0.03346833333333551","-0.0348424999999993"
"857","-0.011955999999998568","-0.01160899999999856"
"858","-0.021514374999999974","-0.010543124999999431"
"859","-0.010224705882353103","-0.011820588235292796"
"860","-0.009762307692304862","-0.006383076923076312"
"861","-0.0072799999999983815","-0.007422000000000537"
"862","-0.010963333333333955","-0.009936666666667074"
"863","-0.007854444444445127","-0.007715555555553206"
"864","-0.007957142857145121","-0.011405714285713893"
"865","-0.0037366666666661295","-0.0037400000000005207"
"866","-0.004069999999998686","-0.006059999999994403"
"867","-0.005247500000000294","-0.006090000000001261"
"868","-0.005667500000001269","-0.00452000000000119"
"869","-0.008950000000001049","-0.0051966666666677"
"870","-0.005896666666666463","-0.006051111111110983"
"871","-0.006016666666662711","-0.007216666666667019"
"872","-0.005867142857142531","-0.00341571428571338"
"873","-0.010832500000001133","-0.008404999999997997"
"874","-0.02541000000000319","-0.008379999999995391"
"875","-0.03959666666666806","-0.05740333333333325"
"876","-0.006516666666665098","-0.015530000000000635"
"877","-0.006411428571428449","-0.007698571428570793"
"878","-0.0063171428571483345","-0.007947142857143976"
"879","-0.002180909090911469","-0.0025149999999995805"
"880","-0.8576510000000004","-0.5378249999999998"
"881","-0.015879999999999228","-0.014313750000000347"
"882","-0.017410833333334114","-0.024152500000001353"
"883","-0.00751818181818206","-0.01707727272727314"
"884","-0.011207999999997753","-0.015834000000003103"
"885","-0.020255000000001643","-0.027301999999998827"
"886","-0.012005555555556194","-0.017428888888888692"
"887","-0.021513571428569783","-0.008264999999999492"
"888","-0.00964125000000049","-0.015238749999999968"
"889","-0.00623228070175679","-0.010266315789473705"
"890","-0.004834999999985712","-0.022710000000000008"
"891","0.0","0.0"
"892","0.0","0.0"
"893","0.0","0.0"
"894","-0.044970000000006394","-0.025729999999995812"
"895","-0.006451818181815838","-0.011089999999997763"
"896","-0.0045114285714293245","-0.00455142857142984"
"897","-0.0061039999999994874","-0.00612199999999774"
"898","-0.017996999999997244","-0.01531100000000123"
"899","-0.014049999999997651","-0.011135555555555577"
"900","-0.022261250000000787","-0.026643749999998967"
"901","-0.004526666666667012","-0.007820000000004748"
"902","-0.002603333333329516","-0.007949999999998644"
"903","-0.00570999999998989","-0.004445000000004029"
"904","-0.009419999999998652","-0.04796333333333299"
"905","-0.017363750000002565","-0.010456250000000722"
"906","-0.0030314285714274952","-0.005065714285714356"
"907","-0.004287999999997539","-0.008549999999996772"
"908","-0.016879999999996897","-0.06757999999999242"
"909","-0.009416666666666629","-0.014119999999998356"
"910","-0.001915000000000333","-0.006064999999999543"
"911","0.0","0.0"
"912","0.0","0.0"
"913","0.0","0.0"
"914","-0.002126666666671421","-0.008216666666667058"
"915","-0.010670000000001068","-0.015859999999996433"
"916","-8.09999999997757E-4","-0.007720000000002614"
"917","-0.0055200000000006355","-0.0042149999999985255"
"918","-0.008331666666668033","-0.011556666666669694"
"919","-0.008436666666666624","-0.0095444444444447"
"920","-0.00766999999999977","-0.00507999999999874"
"921","-0.002078000000003044","-0.00847800000000234"
"922","-0.00522142857143036","-0.00711142857142834"
"923","-0.016797142857140353","-0.011720000000000905"
"924","-0.024164000000000387","-0.014361999999999852"
"925","-0.02354166666666539","-0.008005000000003074"
"926","-0.02016769230769018","-0.017991538461537004"
"927","-0.028683750000000785","-0.01601374999999905"
"928","-0.009532666666668395","-0.012938666666666638"
"929","-0.009477500000000916","-0.006432499999998953"
"930","-0.030589999999994195","-0.028256666666666302"
"931","-0.010273333333333627","-0.009407777777778077"
"932","-0.01523473684210405","-0.016749999999998454"
"933","-0.0121533333333343","-0.0074188888888894805"
"934","-0.005935000000000912","-0.007793750000001154"
"935","-0.005945999999997298","-0.014210000000002054"
"936","-0.007499375000000974","-0.008411874999999736"
"937","-0.7796841250000005","-0.052002500000000305"
"938","0.0","0.0"
"939","0.0","0.0"
"940","0.0","0.0"
"941","-0.018579999999996488","-0.017959999999998644"
"942","-0.01152142857142532","-0.02056428571428524"
"943","-0.02485400000000144","-0.00856600000000185"
"944","-0.007742857142856607","-0.01569285714285432"
"945","-0.01116000000000028","-2.3999999999801958E-4"
"946","-0.012609999999998678","-0.04364999999999242"
"947","-0.002149999999999134","-0.004176666666666051"
"948","-4.0000000002038405E-5","-0.0019100000000022987"
"949","-3.300000000017178E-4","-0.004449999999998511"
"950","0.0","0.0"
"951","-0.008545000000001579","-0.010284999999999656"
"952","-0.011167999999999267","-0.007049999999999557"
"953","-0.004842500000000971","-0.004756249999999795"
"954","-0.003166666666667576","-0.005286666666665478"
"955","0.0","0.0"
"956","0.0","0.0"
"957","0.0","0.0"
"958","-0.008309999999998041","-0.0038800000000058787"
"959","0.0","0.0"
"960","-0.006135000000000446","-0.004405000000001991"
"961","-0.00893999999999906","-0.007070000000005905"
"962","-0.004835999999998819","-0.006231999999999971"
"963","-0.004759999999998617","-0.004873333333333581"
"964","-0.005862222222222139","-0.007763333333334306"
"965","-0.004772500000001401","-0.006247500000002404"
"966","-0.01324000000000325","-0.013260000000002492"
"967","-0.006369999999998299","-0.010443999999998255"
"968","-0.013956000000001722","-0.016428000000000508"
"969","-0.0036550000000019622","-0.01363500000000073"
"970","-0.004029999999996647","-0.014545000000001806"
"971","-0.0052749999999939234","-0.00832000000000832"
"972","-0.024473333333332903","-0.024191666666666833"
"973","-0.009777499999991335","-0.011559999999995796"
"974","-0.005893333333328125","-0.008786666666670348"
"975","-0.008028333333335524","-0.006780000000002673"
"976","-0.012259999999997717","-0.009225000000000705"
"977","-0.012381999999996651","-0.010639999999999362"
"978","-0.007749999999999109","-0.005796666666667487"
"979","-0.05313333333331608","-0.022613333333332264"
"980","-0.03198538461538629","-0.012779230769232059"
"981","-0.008276666666664786","-0.005410000000002431"
"982","0.0","0.0"
"983","-0.008121999999997343","-0.006942999999998989"
"984","0.0","0.0"
"985","0.0","0.0"
"986","0.0","0.0"
"987","0.0","0.0"
"988","0.0","0.0"
"989","-0.006787599999999791","-0.013273200000000714"
"990","-0.01235400000000091","-0.017764666666666547"
"991","-0.0026299999999821466","-0.009770000000003165"
"992","-0.013724999999999987","-0.005385000000000417"
"993","-0.010572000000004777","-0.02028200000000311"
"994","-0.008436000000000022","-0.01106799999999879"
"995","0.0","0.0"
"996","-0.012363333333332468","-0.009845000000002102"
"997","-0.01687166666666684","-0.008693333333332257"
"998","-0.017261249999999784","-0.010051250000000511"
"999","-0.012206000000001183","-0.010589999999997702"
"1000","-0.007481874999999416","-0.006293125000000899"
"1001","-0.005520909090908723","-0.011153636363635594"
"1002","-0.006297999999999604","-0.0124580000000023"
"1003","-0.006567500000000948","-0.002697500000003572"
"1004","-0.0029649999999996624","-0.007217500000002985"
"1005","-0.004714000000001306","-0.007823999999999387"
"1006","-0.00562749999999923","-0.003369999999994988"
"1007","-0.003690000000000282","-0.0040519999999986565"
"1008","-0.006112000000003092","-0.007801999999998088"
"1009","-0.0027149999999984686","-0.0013849999999990814"
"1010","-0.007670000000000954","-0.0020399999999938245"
"1011","0.0","0.0"
"1012","0.0","0.0"
"1013","-0.006700000000002149","-0.006389999999999674"
"1014","0.0","0.0"
"1015","-0.0025849999999998374","-0.015680000000003247"
"1016","-0.008992000000000644","-0.013727999999997565"
"1017","-0.02384000000000223","-0.025589999999998742"
"1018","-0.00963000000000136","-0.015822500000000517"
"1019","-0.01714333333333684","-0.01212333333333504"
"1020","-0.005790000000004625","-0.0036000000000010837"
"1021","-0.008173333333336549","-0.004546666666667439"
"1022","-0.007062222222220132","-0.005110000000001946"
"1023","-0.005463333333338483","-0.002770000000000531"
"1024","-0.006983333333323571","-0.01837666666666375"
"1025","-0.0069649999999962615","-0.009078333333332486"
"1026","-0.010098333333333345","-0.009513333333333584"
"1027","-0.021091428571423876","-0.02383714285714384"
"1028","0.0","0.0"
"1029","0.0","0.0"
"1030","-0.007791666666668344","-0.015537500000000056"
"1031","0.0","0.0"
"1032","0.0","0.0"
"1033","0.0","0.0"
"1034","0.0","0.0"
"1035","-3.9999999999906777E-4","-0.016550000000002285"
"1036","-0.012460000000004356","-0.0252049999999997"
"1037","-0.011517857142859864","-0.01075285714285761"
"1038","-0.010897142857141415","-0.01266285714285585"
"1039","-0.026990000000002467","-0.004649999999999465"
"1040","-0.017532222222222456","-0.012264444444445152"
"1041","-0.013073999999999586","-0.02005800000000022"
"1042","-0.010734999999999495","-0.012849999999998474"
"1043","-0.00467000000000084","-0.007193333333333385"
"1044","-0.002090000000009695","-0.017189999999999372"
"1045","-0.006399999999999295","-0.0041149999999987585"
"1046","-0.04375500000000265","-0.055855000000008204"
"1047","-0.018830000000001235","-0.0012199999999964461"
"1048","-0.022169999999995582","-0.01559999999999917"
"1049","0.0","0.0"
"1050","0.0","0.0"
"1051","0.0","0.0"
"1052","0.0","0.0"
"1053","-0.0026249999999947704","-0.02073999999999998"
"1054","-0.007430000000006487","-0.003959999999999297"
"1055","0.0","0.0"
"1056","0.0","0.0"
"1057","0.0","0.0"
"1058","0.0","0.0"
"1059","-0.01051000000000002","-0.008900000000004127"
"1060","-0.006676666666666146","-0.006991666666664287"
"1061","0.0","0.0"
"1062","0.0","0.0"
"1063","0.0","0.0"
"1064","0.0","0.0"
"1065","0.0","0.0"
"1066","0.0","0.0"
"1067","-0.05471500000000873","-0.005219999999997782"
"1068","-0.022752222222223395","-0.015426666666666873"
"1069","-0.005452105263156239","-0.006618421052632141"
"1070","-0.005294999999996719","-0.003815000000006563"
"1071","0.0","0.0"
"1072","0.0","0.0"
"1073","0.0","0.0"
"1074","0.0","0.0"
"1075","0.0","0.0"
"1076","0.0","0.0"
"1077","-0.003614999999996371","-0.002984999999998905"
"1078","0.0","0.0"
"1079","0.0","0.0"
"1080","0.0","0.0"
"1081","0.0","0.0"
"1082","0.0","0.0"
"1083","-0.016913750000000505","-0.028014999999999013"
"1084","-0.006426470588237976","-0.008388823529411211"
"1085","0.0","0.0"
"1086","-0.006305555555555663","-0.013573333333335805"
"1087","-0.010215000000002306","-0.013900000000003132"
"1088","-0.003660000000001773","-0.013519999999999754"
"1089","-0.008105000000004026","-0.022110000000001406"
"1090","-0.021105000000000373","-0.034805000000002195"
"1091","-0.023339999999997474","-7.0999999999799E-4"
"1092","-0.015470000000000539","-8.199999999973784E-4"
"1093","-0.014699999999997715","-0.021475000000002353"
"1094","0.0","0.0"
"1095","0.0","0.0"
"1096","-0.007394999999997154","-0.03378000000000014"
"1097","0.0","0.0"
"1098","0.0","0.0"
"1099","0.0","0.0"
"1100","0.0","0.0"
"1101","0.0","0.0"
"1102","0.0","0.0"
"1103","0.0","0.0"
"1104","0.0","0.0"
"1105","0.0","0.0"
"1106","0.0","0.0"
"1107","0.0","0.0"
"1108","0.0","0.0"
"1109","0.0","0.0"
"1110","0.0","0.0"
"1111","0.0","0.0"
"1112","0.0","0.0"
"1113","0.0","0.0"
"1114","0.0","0.0"
"1115","0.0","0.0"
"1116","-0.0018900000000314776","-0.04784999999999684"
"1117","-0.022639999999995553","-0.033153333333333514"
"1118","0.0","0.0"
"1119","0.0","0.0"
"1120","0.0","0.0"
"1121","0.0","0.0"
"1122","0.0","0.0"
"1123","0.0","0.0"
"1124","0.0","0.0"
"1125","0.0","0.0"
"1126","0.0","0.0"
"1127","0.0","0.0"
"1128","0.0","0.0"
"1129","0.0","0.0"
"1130","-0.022422631578947222","-0.018522105263157885"
"1131","-0.019327333333336583","-0.01614066666666408"
"1132","-0.020181578947368974","-0.01358631578947205"
"1133","-5.000000015797923E-6","-9.999999996068709E-6"
"1134","-0.0012542857142894906","-0.004175714285711"
"1135","-0.01394428571428717","-0.016134285714283943"
"1136","-0.09668400000000119","-0.015057999999999794"
"1137","-0.019090000000000273","-0.019857499999996975"
"1138","-0.013550000000002171","-0.02787000000000006"
"1139","-0.023890000000000338","-0.0910633333333332"
"1140","-0.003864999999999341","-0.06992999999999938"
"1141","0.0","0.0"
"1142","0.0","0.0"
"1143","0.0","0.0"
"1144","0.0","0.0"
"1145","0.0","0.0"
"1146","0.0","0.0"
"1147","0.0","0.0"
"1148","0.0","0.0"
"1149","0.0","0.0"
"1150","0.0","0.0"
"1151","0.0","0.0"
"1152","0.0","0.0"
"1153","0.0","0.0"
"1154","0.0","0.0"
"1155","0.0","0.0"
"1156","-0.02022000000000901","-0.030179999999994322"
"1157","-0.05897000000000219","-0.003109999999999502"
"1158","-0.03536000000001138","-0.03275000000000006"
"1159","-0.030979999999999563","-0.02650749999999924"
"1160","-0.03819666666666895","-0.04434333333333266"
"1161","-0.04591999999999056","-0.025010000000001753"
"1162","-0.0014799999999866031","-0.05824999999999392"
"1163","-0.008449999999996294","-0.025390000000001578"
"1164","-0.011917916666667713","-0.009228749999999822"
"1165","0.0","0.0"
"1166","0.0","0.0"
"1167","0.0","0.0"
"1168","0.0","0.0"
"1169","0.0","0.0"
"1170","0.0","0.0"
"1171","0.0","0.0"
"1172","0.0","0.0"
"1173","0.0","0.0"
"1174","0.0","0.0"
