"cell_id","acc_x","acc_y"
"0","0.0","0.0"
"1","-0.028994999999998328","0.04700999999999997"
"2","-0.012170434782607641","0.01358173913043478"
"3","-0.016928888888889215","0.01438222222222224"
"4","-0.008621458333332018","0.006788958333333324"
"5","-0.0065055172413778575","0.006041034482758621"
"6","-0.011925000000002583","0.008503000000000038"
"7","-0.013640000000001087","0.0208707692307693"
"8","-0.02047941176470549","0.012881764705882322"
"9","-0.019560694444444415","0.014265555555555547"
"10","-0.022914545454545146","0.017836363636363636"
"11","-0.035484999999999545","0.021588333333333334"
"12","-0.03656999999999949","0.025095000000000013"
"13","-0.022756923076923903","0.011450384615384671"
"14","-0.009392222222221136","0.008624722222222263"
"15","-0.16350538461538486","0.028982307692307682"
"16","-0.01574250000000177","0.021049999999999958"
"17","-0.011926666666665161","0.020553333333333274"
"18","-0.012882499999998132","0.009682499999999983"
"19","0.0","0.0"
"20","0.0","0.0"
"21","0.0","0.0"
"22","-0.002060000000000173","0.0019299999999999873"
"23","0.0","0.0"
"24","0.0","0.0"
"25","0.0","0.0"
"26","0.0","0.0"
"27","0.0","0.0"
"28","0.0","0.0"
"29","0.0","0.0"
"30","0.0","0.0"
"31","0.0","0.0"
"32","0.0","0.0"
"33","0.0","0.0"
"34","0.0","0.0"
"35","0.0","0.0"
"36","0.0","0.0"
"37","0.0","0.0"
"38","0.0","0.0"
"39","0.0","0.0"
"40","0.0","0.0"
"41","-1.1865819999999994","0.8511126666666665"
"42","-0.0027499999999918145","0.014349999999999863"
"43","0.0","0.0"
"44","0.0","0.0"
"45","0.0","0.0"
"46","0.0","0.0"
"47","0.0","0.0"
"48","-0.0049500000000080036","0.015530000000000044"
"49","-0.014426800000000278","0.02257080000000002"
"50","-0.006949166666665402","0.01138166666666671"
"51","-0.007834838709677806","0.007540322580645194"
"52","-0.007100322580647455","0.005076774193548382"
"53","-0.008615789473684014","0.0078119298245613745"
"54","-0.008049374999999526","0.010341250000000038"
"55","-0.015979615384617334","0.013453461538461609"
"56","-0.015200540540540238","0.018205135135135036"
"57","-0.016408095238093928","0.019410476190476172"
"58","-0.007179230769231173","0.005568461538461467"
"59","-0.013568666666666947","0.01796466666666676"
"60","-0.010220952380952346","0.010660476190476139"
"61","-0.012506749999999834","0.011017249999999968"
"62","0.0","0.0"
"63","-0.013705999999999345","0.00835533333333327"
"64","-0.011099999999999","0.029499999999999638"
"65","-0.017771666666664743","0.011510000000000206"
"66","-0.00987708333333496","0.009108750000000035"
"67","-0.010094615384617192","0.009119230769230833"
"68","-0.006838571428571884","0.016535714285714258"
"69","-0.00967857142857501","0.0099142857142857"
"70","-0.004130000000001151","0.00987000000000012"
"71","-0.014061666666665454","0.009148333333333388"
"72","-0.007020000000000692","0.008337499999999998"
"73","-0.007884999999999328","0.013139999999999855"
"74","-0.004802500000000265","0.009487500000000204"
"75","-0.009665999999999998","0.006284000000000134"
"76","-0.008187142857141996","0.010732857142857164"
"77","-0.009196666666665484","0.009806666666666667"
"78","-0.009539999999998373","0.011397999999999974"
"79","-0.017719999999999913","0.02337200000000026"
"80","-0.02745333333334088","0.028259999999999657"
"81","0.0","0.0"
"82","0.0","0.0"
"83","0.0","0.0"
"84","-0.006409999999997733","0.016240000000000032"
"85","-0.017957499999990745","0.018779999999999908"
"86","-0.004230000000004471","0.0029916666666668"
"87","-0.005533333333344122","0.0037400000000000766"
"88","-0.00858000000000061","0.017388000000000136"
"89","-0.007015833333333887","0.008158333333333304"
"90","0.0","0.0"
"91","0.0","0.0"
"92","0.0","0.0"
"93","0.0","0.0"
"94","0.0","0.0"
"95","-0.01695666666666777","0.03901666666666692"
"96","-0.018126666666668623","0.027176666666666554"
"97","-0.015062051282051368","0.011760769230769177"
"98","-0.007821666666662619","0.007493333333333574"
"99","-0.008176000000000698","0.010198800000000058"
"100","-0.008873333333333585","0.019912499999999927"
"101","-0.010994000000002658","0.015933999999999848"
"102","-0.007569999999998522","0.019859999999999767"
"103","-0.010139374999998063","0.008777500000000105"
"104","-0.012152333333333942","0.01418955555555566"
"105","-0.01420999999999963","0.00948031746031741"
"106","-0.023505844155843333","0.019432207792207747"
"107","-0.02106606557377036","0.015599344262294998"
"108","-0.02233673913043448","0.02355326086956517"
"109","-0.02132216216216238","0.020865945945945888"
"110","-0.02844254901960873","0.01465764705882344"
"111","-0.031599166666667365","0.022465000000000106"
"112","-0.012468749999997364","0.015623749999999936"
"113","-0.013432499999999218","0.009752500000000053"
"114","-0.007474999999998862","0.005354999999999999"
"115","-0.0012266666666675974","0.0066799999999999455"
"116","-0.004825714285715321","0.007837142857142812"
"117","-0.005400000000008731","0.002275000000000027"
"118","-8.466666666677725E-4","0.006753333333333167"
"119","-1.1999999998835165E-4","0.0020500000000005514"
"120","-0.005050000000004218","4.000000000026205E-5"
"121","-0.009651666666668982","0.004923333333333464"
"122","-0.005525999999996145","0.008224000000000231"
"123","-0.004695714285713645","0.0051171428571428835"
"124","-0.008007777777775024","0.007852222222222297"
"125","-0.011608000000002505","0.007762000000000313"
"126","0.0","0.0"
"127","-0.00886749999999914","0.017461250000000095"
"128","-2.3999999999091415E-4","0.0018599999999988626"
"129","-0.0025199999999898637","0.0026599999999996626"
"130","-0.01454999999999984","0.009149999999999103"
"131","-0.013347999999999161","0.012475999999999755"
"132","-0.007496666666666683","0.008863333333333272"
"133","-0.008686000000002992","0.011490000000000222"
"134","-0.007436666666663427","0.007443333333333098"
"135","-0.010433333333333886","0.004936666666666589"
"136","-0.00741999999999976","0.001754999999999951"
"137","0.0","0.0"
"138","0.0","0.0"
"139","0.0","0.0"
"140","0.0","0.0"
"141","0.0","0.0"
"142","-0.00531000000000148","0.03413000000000066"
"143","-0.03163500000000008","0.02319249999999995"
"144","-0.018756000000004037","0.026713999999999773"
"145","-0.008331666666665368","0.010521111111111203"
"146","-0.008484999999998877","0.009604500000000104"
"147","-0.009701249999996886","0.018836875000000086"
"148","-0.03449999999999313","0.014580000000000305"
"149","-0.014492499999992248","0.025670000000000304"
"150","-0.015395000000005155","0.023009999999999753"
"151","-0.04066857142857166","0.03971190476190475"
"152","-0.01922463414634318","0.019015121951219564"
"153","-0.019267291666667852","0.016854999999999936"
"154","-0.02138568181818279","0.017612272727272685"
"155","-0.014395151515151082","0.022237575757575536"
"156","-0.025519242424242715","0.021431363636363686"
"157","-0.022406388888889142","0.018251944444444224"
"158","-0.01594235294117731","0.017555882352941223"
"159","-0.013387272727272338","0.015565909090909187"
"160","-0.007775555555555671","0.0045977777777779965"
"161","-0.009524444444441511","0.0077277777777776295"
"162","-0.006260000000004595","0.0011049999999999116"
"163","-0.005533333333333069","0.0046866666666664815"
"164","-0.006668571428572737","0.005422857142856888"
"165","-0.0065275000000006855","0.009665000000000479"
"166","-0.007847999999998478","0.010749999999999638"
"167","-0.00914500000000018","0.004155000000000797"
"168","-0.0058242857142839655","0.008578571428571356"
"169","-0.0048799999999999955","0.006080000000000085"
"170","-0.0012500000000059686","0.007390000000000008"
"171","0.0","0.0"
"172","-0.017151666666669268","0.005486666666666344"
"173","-0.008195999999998094","0.007587999999999884"
"174","-0.01606714285714109","0.011798571428571516"
"175","-0.004499999999993065","0.007099999999998552"
"176","0.0","0.0"
"177","-0.014194999999998478","0.012055000000000001"
"178","0.0","0.0"
"179","-0.012764999999994586","0.01104999999999956"
"180","-0.01083166666666339","0.009419999999999984"
"181","-0.008407999999997173","0.003979999999999961"
"182","-0.005748750000000413","0.0037325000000002495"
"183","-0.011714545454544444","0.006810000000000083"
"184","-0.01414999999999722","0.011550000000000393"
"185","-0.021143636363636243","0.026187272727272785"
"186","0.0","0.0"
"187","0.0","0.0"
"188","-0.002297777777777633","0.007317777777778052"
"189","0.0","0.0"
"190","0.0","0.0"
"191","-0.030469166666667435","0.09184083333333337"
"192","-0.007634500000000299","0.007157500000000238"
"193","-0.007489375000000575","0.011409374999999944"
"194","-0.023034545454546095","0.028163636363636127"
"195","-0.0057307142857098625","0.013074285714284959"
"196","-0.003735999999999725","0.0076713333333334075"
"197","-0.02934249999999731","0.03732249999999948"
"198","-0.018567333333333855","0.022767999999999646"
"199","-0.01764428571428819","0.020253571428571298"
"200","-0.026572916666663875","0.0269783333333334"
"201","-0.02773799999999909","0.023814800000000105"
"202","-0.0194994642857153","0.019433750000000076"
"203","-0.015810465116278948","0.02020906976744207"
"204","-0.024055952380952865","0.012867619047618947"
"205","-0.01045344827586141","0.013555517241379619"
"206","-0.0085644444444443","0.01125888888888888"
"207","-0.01866736842105385","0.010143157894736538"
"208","-0.0060371428571416785","0.008880000000000063"
"209","-0.0037671428571418425","0.00699857142857141"
"210","-0.005939999999995393","0.010613333333332994"
"211","-0.009375000000002132","0.005709999999998772"
"212","-1.5999999999394277E-4","0.0027300000000014535"
"213","-0.005069999999998724","0.00470333333333232"
"214","-0.00135666666666386","0.007613333333333472"
"215","0.0","0.0"
"216","-0.00979333333333443","0.002386666666666315"
"217","-0.005124285714286104","0.004644285714285244"
"218","-0.00845166666666349","0.00723666666666715"
"219","-0.008521666666667945","0.011593333333333492"
"220","-0.015777999999997405","0.013465999999999312"
"221","0.0","0.0"
"222","-0.010164999999998278","0.007673333333333569"
"223","-0.020092857142858276","0.016144285714286357"
"224","-0.016000000000005343","0.00765000000000029"
"225","-0.008982500000001892","0.007504999999999651"
"226","-0.018248571428569806","0.007871428571428498"
"227","-0.011366666666663465","0.01412833333333325"
"228","-0.0040530769230767965","0.00788000000000011"
"229","-1.3866362162162162","0.013312972972973364"
"230","-0.006452187499998541","0.00836749999999975"
"231","-0.00883844827586087","0.00883672413793117"
"232","-0.006072222222222216","0.007093333333333618"
"233","-0.01944000000000301","0.009689999999999088"
"234","0.0","0.0"
"235","-0.006075000000002717","0.00672124999999979"
"236","-0.02440499999999801","0.01562375000000027"
"237","-0.02555000000000973","0.012353333333332253"
"238","-0.011424999999993135","0.009829999999999561"
"239","-0.009061666666668819","0.007456666666666519"
"240","-0.021722500000006306","0.027961249999999938"
"241","-0.004544999999996691","0.01823749999999924"
"242","-0.02004600000000032","0.012123999999999668"
"243","-0.015613333333330814","0.026436666666665925"
"244","-0.04698499999999939","0.023841249999999814"
"245","-0.01684750000000701","0.028282500000000876"
"246","-0.021983333333334562","0.008509999999999825"
"247","-0.032695555555554714","0.020558333333332988"
"248","-0.019102499999997136","0.006759999999998101"
"249","-0.031062380952382642","0.02187190476190537"
"250","-0.020622666666665405","0.02063433333333329"
"251","-0.019739473684209117","0.011661052631579238"
"252","-0.016525999999999284","0.016250000000000143"
"253","-0.010638235294118873","0.009627058823529419"
"254","-0.005476470588235279","0.004626470588235065"
"255","-0.0091876470588245","0.008327058823529106"
"256","-0.006444166666666362","0.007620833333333632"
"257","-0.0064884615384615835","0.00571230769230747"
"258","-0.005518333333331071","0.004276666666666411"
"259","-0.013819999999996923","0.010935999999999524"
"260","-0.005019999999997538","0.011667999999999878"
"261","-0.007902857142855371","0.016680000000000157"
"262","-0.011939999999994436","0.007349999999999746"
"263","-0.014090000000003045","0.009600000000000719"
"264","-0.012139999999995155","0.01194000000000095"
"265","-0.05129400000000004","0.011546000000000233"
"266","-0.009293333333335596","0.007493333333333278"
"267","-0.005345000000005484","0.008182500000001536"
"268","-0.025954545454546653","0.01625636363636347"
"269","-0.006606666666664296","0.008163333333333493"
"270","-0.010375000000001222","0.010909500000000082"
"271","-0.006646818181821537","0.010563181818182166"
"272","-0.01437299999999766","0.0062319999999996155"
"273","-0.015039999999996686","0.016114999999999807"
"274","-0.040197857142857174","0.014984999999999995"
"275","-0.010060000000001424","0.023332000000000262"
"276","-0.013415862068965539","0.011323103448276032"
"277","-0.037221999999998916","0.013092000000000326"
"278","-0.005178750000001386","0.007033000000000067"
"279","-0.021448750000001127","0.019859375000000012"
"280","-0.08637200000000292","0.03718800000000009"
"281","0.0","0.0"
"282","-0.03127000000000635","0.04067999999999827"
"283","-0.016292499999995158","0.014755000000000518"
"284","-0.0229650000000019","0.013910000000000977"
"285","-0.07213699999999887","0.3594610000000003"
"286","-0.00842000000000572","0.011203333333332566"
"287","-0.015414545454542926","0.027680909090909044"
"288","-0.04939285714285698","0.026701428571429226"
"289","-0.04358363636363598","0.02815454545454524"
"290","-0.013573181818181658","0.027915909090909272"
"291","-0.006503333333333157","0.01839999999999975"
"292","-0.010853333333333381","0.016708666666666854"
"293","-0.025279285714284377","0.016669999999999647"
"294","-0.00931900000000141","0.00950899999999996"
"295","-0.01594928571428511","0.01013214285714259"
"296","-0.014077352941176964","0.020308529411764458"
"297","-0.01237099999999991","0.018336333333333243"
"298","-0.03183272727272621","0.042119999999999956"
"299","-0.014700833333334865","0.011590833333333586"
"300","-0.011228888888888535","0.011348888888889321"
"301","-0.009236666666666338","0.008486666666667296"
"302","-0.0277256249999982","0.013488125000000406"
"303","-0.004287142857145503","0.006570000000000219"
"304","-0.00527933333333408","0.0050126666666663764"
"305","-0.005333333333335115","0.005416000000000428"
"306","-0.009627499999997013","0.00809499999999952"
"307","-0.006481428571422246","0.00973571428571469"
"308","-0.00818666666666464","0.008151666666666557"
"309","-0.007425714285712307","0.004544285714285731"
"310","-0.0025522222222223137","0.005697777777778591"
"311","-0.007230000000001268","0.007089999999999819"
"312","-0.02593999999999852","0.0027900000000009584"
"313","-0.006317777777778606","0.013069999999999422"
"314","-0.01106333333333609","0.011056666666666418"
"315","-0.009590769230772348","0.012582307692307828"
"316","-0.013178999999998098","0.013371999999999495"
"317","-0.009287333333332981","0.018290000000000067"
"318","-0.014147419354838205","0.016779677419354502"
"319","-0.011294062500000202","0.011249687500000105"
"320","-0.01228648648648685","0.010696756756756763"
"321","-0.01431600000000041","0.023966000000000064"
"322","0.0","0.0"
"323","-0.012572222222219041","0.010544074074074119"
"324","-0.0061493333333335915","0.005712000000000058"
"325","-0.00859935483871212","0.008427096774193517"
"326","-0.12412999999999859","0.019073333333333053"
"327","-0.018540000000001555","0.03798999999999886"
"328","0.0","0.0"
"329","-0.010371666666666593","0.010773333333333449"
"330","-0.024919999999994502","0.007059999999997402"
"331","-0.017439999999997013","0.026306666666666107"
"332","-0.007428333333332186","0.009208333333333188"
"333","-0.01085575757575764","0.01092696969696981"
"334","-0.009745714285714394","0.009456666666666806"
"335","-0.011925714285717553","0.00880142857142907"
"336","-0.008953333333334848","0.007756666666666116"
"337","-0.007537619047617062","0.008026666666666384"
"338","-0.006784999999998931","0.017434999999999572"
"339","-0.01490250000000041","0.02133083333333315"
"340","-0.009073999999994697","0.015548000000000783"
"341","-0.018493636363637413","0.024154545454545196"
"342","-0.017761111111110967","0.012852222222222784"
"343","-0.015756249999997918","0.01635937500000062"
"344","-0.014948260869565428","0.017069130434782774"
"345","-0.009637500000001076","0.01209874999999938"
"346","-0.009360000000000134","0.014253333333332958"
"347","-0.007178999999998581","0.015815999999999518"
"348","-0.021385000000002208","0.03508500000000048"
"349","-0.0029650000000014387","0.0034050000000007685"
"350","-0.002675000000000338","0.002527500000000149"
"351","-0.004378333333333373","0.00533041666666656"
"352","-0.0069023076923101076","0.004720769230769242"
"353","-0.004212000000000415","0.007926000000000499"
"354","-0.00932909090909171","0.007768181818181962"
"355","-0.0031714285714282858","0.00696999999999954"
"356","-0.008193749999999778","0.008758124999999728"
"357","-0.006368461538459568","0.007746923076923305"
"358","-0.008738571428572024","0.015922857142858047"
"359","-0.007570769230770662","0.004114615384615114"
"360","-0.007898333333332156","0.005921666666666307"
"361","-0.01899800000000198","0.026016000000000143"
"362","-0.015314545454545742","0.015220909090909129"
"363","-0.004261176470588252","0.004362352941176314"
"364","-0.09476379310345057","0.5494562068965522"
"365","-0.006537499999998531","0.015320000000000444"
"366","-0.01142652173913113","0.00953652173913039"
"367","-0.008535333333334923","0.007409999999999902"
"368","-0.017811666666667964","0.010471250000000598"
"369","-0.0074379069767454165","0.030966511627907135"
"370","-0.02864399999999705","0.03350900000000001"
"371","-0.02274083333333247","0.028333333333332728"
"372","-0.010509374999999821","0.012175625000000467"
"373","-0.009620476190476557","0.004393809523809316"
"374","-0.02366999999999919","0.007895000000000874"
"375","0.0","0.0"
"376","-0.012903333333326827","0.013856666666666703"
"377","-0.03716000000000008","0.05319000000000074"
"378","-0.012257272727271033","0.01708727272727179"
"379","-0.019114999999995774","0.005444999999999922"
"380","-0.020524871794870878","0.015689230769230386"
"381","-0.010211818181816894","0.018943636363636527"
"382","0.0","0.0"
"383","-0.0052400000000005775","0.0028100000000002012"
"384","0.0","0.0"
"385","-0.014536666666667012","0.010828333333332848"
"386","-0.013125999999998802","0.014598000000000156"
"387","-0.009946666666664328","0.009953333333331926"
"388","-0.014103333333332913","0.01272166666666763"
"389","-0.01502666666666662","0.02045333333333331"
"390","-0.018977692307690683","0.02174923076923135"
"391","-0.01143530612244935","0.01598918367346963"
"392","-0.009631142857143971","0.00895428571428535"
"393","-0.019481666666664548","0.010256666666665323"
"394","-0.0032399999999981333","0.02191999999999794"
"395","-0.042222000000001","0.022948000000000236"
"396","-0.021105000000005703","0.012855000000001837"
"397","0.0","0.0"
"398","-0.004233333333341231","0.0022300000000008424"
"399","-0.005427499999999252","0.00301312499999995"
"400","-0.003899200000001315","0.002960000000000349"
"401","-0.010460000000001912","0.0029350000000016863"
"402","-0.0055899999999979855","0.002904999999998381"
"403","-0.022493333333336807","0.006249999999999052"
"404","-0.011266666666666461","0.001929999999998581"
"405","-0.007023333333332715","0.006326666666665777"
"406","-0.0031899999999993158","0.004484000000000776"
"407","-0.014202499999999674","0.00530166666666639"
"408","-0.005945999999999429","0.00977899999999945"
"409","-0.01181200000000331","0.004192000000000462"
"410","-0.0067527777777769415","0.00496777777777672"
"411","-0.022064117647060504","0.012181176470589564"
"412","-0.017487142857140623","0.014112857142856785"
"413","-0.020661666666667442","0.030596666666666925"
"414","-0.28407772727272856","0.20651568181818208"
"415","-0.01767380952380953","0.017715238095237378"
"416","-0.2132165999999998","0.09027280000000022"
"417","-1.0127604545454547","0.45732530303030294"
"418","-0.0317102127659596","0.02218106382978697"
"419","-0.3382758750000008","0.2349151249999999"
"420","-0.36722538461538573","0.1417634615384604"
"421","0.0","0.0"
"422","-0.006330000000005498","0.0037100000000016564"
"423","-0.01766999999999541","0.05837000000000181"
"424","-0.02162999999999989","0.04880333333333198"
"425","-0.022406842105261088","0.026132105263157745"
"426","-0.026224000000001267","0.03622000000000014"
"427","-0.020144999999999413","0.017045000000000865"
"428","-0.01495599999999513","0.017777999999998427"
"429","-0.013055714285715376","0.019274285714285355"
"430","-0.03930666666666719","0.025653333333334416"
"431","-0.028070000000013806","0.00909000000000404"
"432","-0.012196666666663228","0.011346666666669355"
"433","-0.013288333333337713","0.046011666666666194"
"434","-0.053060000000002105","0.07359000000000293"
"435","-0.02510874999999979","0.018490624999999872"
"436","-0.008248181818182522","0.009409999999999676"
"437","-0.016023750000002668","0.00657625000000106"
"438","-0.024875000000000112","0.025475000000000313"
"439","-0.3503905714285708","0.11028999999999967"
"440","-0.0058328571428571","0.00886071428571457"
"441","-0.012546000000001811","0.011477999999999966"
"442","-0.03387999999999636","0.0030700000000010164"
"443","-0.014673333333334426","0.002266666666666121"
"444","-0.012003333333334846","0.020153333333333023"
"445","-0.01470666666666709","0.015343333333333339"
"446","-0.005826250000001032","0.005202500000000221"
"447","-0.0065680000000014616","0.0024879999999996016"
"448","-0.008440000000000225","0.002674999999999983"
"449","-0.008100000000000662","0.009940000000000282"
"450","-0.009404444444445263","0.0038277777777777386"
"451","-0.0057759999999987596","0.0054039999999993425"
"452","-0.007210000000002974","0.005936666666668107"
"453","-0.016226363636366547","0.007316363636363121"
"454","-0.004446666666665304","0.005688333333333517"
"455","-0.013169999999999505","0.006054000000001026"
"456","0.0","0.0"
"457","-0.007057222222222492","0.00789944444444441"
"458","-0.01751968750000099","0.017572812500000645"
"459","-0.011971250000000922","0.016610750000000073"
"460","-0.01204857142856903","0.009655714285714672"
"461","-0.016282812500000965","0.016189999999999705"
"462","-0.014614400000000671","0.017720600000000034"
"463","-0.010787692307693292","0.0098580769230773"
"464","-0.014422063492064003","0.015268571428571754"
"465","-0.054803157894735034","0.023788421052630963"
"466","-0.03126399999999947","0.014762999999999771"
"467","-0.007600799999998457","0.01361279999999951"
"468","-0.0028700000000062196","0.007458333333334011"
"469","-0.00465000000000515","0.004405000000001991"
"470","-0.0021374999999963507","0.010142499999999721"
"471","-0.03064199999999797","0.07454000000000108"
"472","-0.0123149999999967","0.019943999999999563"
"473","-0.02582000000000173","0.04841437500000012"
"474","-0.018224999999995717","0.015111666666667153"
"475","-0.028766666666665348","0.01758333333333321"
"476","-0.01543600000000236","0.016176000000000457"
"477","-0.008545000000005132","0.007279999999997955"
"478","0.0","0.0"
"479","0.0","0.0"
"480","-0.007480000000001041","0.0163499999999992"
"481","-0.005239999999999689","0.008512500000000145"
"482","-0.016366000000000012","0.009398000000000194"
"483","-0.010472000000007142","0.00920200000000051"
"484","-0.01204777777778195","0.008422222222221935"
"485","-0.010181428571428341","0.008268571428571545"
"486","-0.008724000000002263","0.0068420000000010365"
"487","-0.02135526315789536","0.01275631578947449"
"488","-0.015599411764704866","0.010394117647058632"
"489","-0.005488333333332207","0.00767833333333338"
"490","-0.02795499999999862","0.0341350000000018"
"491","-0.023584166666667034","0.020004166666666972"
"492","-0.009872500000000173","0.005072499999998925"
"493","-0.00776249999999834","0.016280000000002737"
"494","-0.004686000000002366","0.008139999999999504"
"495","-0.002314999999999401","0.006599999999998829"
"496","-0.00560000000000116","0.004090000000001481"
"497","-0.006380000000000052","0.005613333333333988"
"498","-0.007538235294118365","0.004744705882351998"
"499","-0.004286842105263358","0.0030263157894739236"
"500","-0.04695071428571345","0.010782857142856222"
"501","-0.008060000000001288","0.00886249999999933"
"502","-0.004042500000002747","0.003786500000000714"
"503","-0.28299857142856616","0.05119142857142884"
"504","-0.011716800000001512","0.011970000000000454"
"505","-0.008015312500000427","0.007905937500000015"
"506","-0.020143529411766996","0.021549411764706358"
"507","-0.015960243902437988","0.014025121951219294"
"508","-0.017388666666668464","0.03557000000000083"
"509","-0.011971304347826702","0.029522173913043164"
"510","-0.028508749999999417","0.01998374999999908"
"511","-0.013771111111111622","0.013477777777778078"
"512","-0.016294444444444563","0.04037999999999996"
"513","-0.012867692307694894","0.014481538461539255"
"514","-0.03587761904761743","0.03446761904761887"
"515","0.0","0.0"
"516","0.0","0.0"
"517","0.0","0.0"
"518","-0.010770000000003095","0.014578181818181562"
"519","-0.02943181818181993","0.04361212121212077"
"520","-0.07846","0.07461142857142836"
"521","-0.05912000000000006","0.07677999999999763"
"522","-0.01317500000000038","0.01668499999999895"
"523","-0.08566000000000429","0.008520000000004302"
"524","-0.014262500000000955","0.01359499999999958"
"525","-0.009210000000010155","0.005630000000000024"
"526","0.0","0.0"
"527","0.0","0.0"
"528","-0.0069119999999983864","0.01197999999999837"
"529","-0.005009999999998627","0.017450000000000188"
"530","-0.0069000000000038145","0.017591999999999074"
"531","-0.07361999999999683","0.01294200000000103"
"532","-0.015209999999999132","0.006478333333333808"
"533","-0.009685555555555996","0.014451666666666283"
"534","-0.014918333333334033","0.013826666666667245"
"535","-0.014578571428574248","0.0102871428571437"
"536","-0.009161249999998233","0.009613750000000199"
"537","-0.005453999999998871","0.006841999999999615"
"538","-0.008610000000000895","0.0064650000000021635"
"539","-0.008093333333332472","0.002620000000001473"
"540","-0.0044699999999977535","0.003789999999998628"
"541","-0.010480000000001155","0.004918571428570979"
"542","-0.008804999999995289","0.010995000000001198"
"543","-0.01247199999999964","0.005820000000000647"
"544","-0.012743750000002052","0.011636249999999126"
"545","-0.014670000000000374","0.008374285714286904"
"546","0.0","0.0"
"547","-0.018532500000002727","0.011887500000000273"
"548","-0.003560000000007335","0.011086666666669723"
"549","-0.008527777777778233","0.005597777777777837"
"550","-0.002420000000000755","0.005178333333333285"
"551","-0.006972222222226303","0.006849999999998839"
"552","-0.010151250000000722","0.004713125000000318"
"553","-0.02345250000000121","0.015369166666667322"
"554","-0.01315633333333371","0.009850666666667134"
"555","-0.022000499999999333","0.01737849999999952"
"556","-0.013948148148150116","0.014620000000000348"
"557","-0.01451153846153812","0.0138853846153842"
"558","-0.01486947368420781","0.01033578947368372"
"559","-0.021484347826087026","0.01702956521739119"
"560","-0.044319999999995474","0.06665000000000099"
"561","-0.014464285714281695","0.03177785714285797"
"562","-0.09715166666666637","0.03362666666666551"
"563","-0.046390000000016585","0.02651999999999788"
"564","-0.020383333333337344","-0.0029933333333348835"
"565","-0.016245000000000214","0.00777333333333452"
"566","-0.016215714285712984","-0.021274285714285263"
"567","-0.02344800000000209","0.05147800000000089"
"568","-0.048693333333333776","0.08210666666666692"
"569","-0.04501499999999906","-0.006258333333333255"
"570","-0.04802999999999713","0.11296000000000461"
"571","-0.030300000000000944","0.023900000000000636"
"572","-0.009141428571429142","0.011268571428571152"
"573","-0.49004727272727167","0.0729826573426576"
"574","-0.016016666666668122","-0.0011283333333329537"
"575","-0.004171999999999798","0.0062200000000018464"
"576","-0.003889999999984184","0.008345000000002045"
"577","-0.013876666666664761","0.004240000000001724"
"578","-0.01595000000000013","0.0220600000000033"
"579","-0.038786666666665165","0.014037777777777668"
"580","-0.007192857142855351","0.0032499999999997847"
"581","-0.018603749999999586","-0.003818750000001092"
"582","-0.02294428571428345","0.002351428571428877"
"583","-0.01186000000000474","0.013514285714285177"
"584","-0.013621666666669086","0.004121666666666653"
"585","-0.01093400000000031","0.0011659999999984905"
"586","-0.010357142857141557","0.01380571428571439"
"587","-0.011142500000001831","0.0061400000000007005"
"588","-0.005890000000000839","-5.580000000023233E-4"
"589","-0.0116416666666647","-0.020354999999999162"
"590","-0.011438571428572328","-0.0035657142857142992"
"591","0.0","0.0"
"592","-0.02756363636363672","-0.02189090909090975"
"593","0.0","0.0"
"594","-0.007218000000001723","0.003460000000001884"
"595","-0.018842499999998097","-0.01524250000000027"
"596","-0.038330625000000396","-0.016157499999998937"
"597","-0.00978500000000615","-0.005634374999999192"
"598","-0.015338571428569838","-0.0016914285714287405"
"599","-0.06815210526315764","-0.034468947368421106"
"600","-0.015615250000000103","-0.008728500000000406"
"601","-0.015272000000000828","-0.0018768571428570422"
"602","-0.02616363636363417","0.009961818181819576"
"603","-0.05873187499999677","-0.006269375000000688"
"604","-0.031045454545451632","0.005019090909091129"
"605","-0.02290399999999977","-0.0010545000000000472"
"606","-0.022433023255814203","-0.0035904651162793856"
"607","-0.02357777777778046","-0.016363333333334"
"608","-0.0349376744186036","0.003721627906976804"
"609","-0.09136000000000268","-0.07627857142856952"
"610","0.0","0.0"
"611","-0.0035999999999987153","-0.015430000000000277"
"612","-0.0405799999999914","-0.005189999999998918"
"613","0.0","0.0"
"614","-0.043219999999996615","-0.013449999999999563"
"615","0.0","0.0"
"616","-0.017497777777776946","-0.03232555555555589"
"617","-0.01495875000000102","-0.024870000000001724"
"618","-0.008254999999998347","-0.015054999999998486"
"619","0.0","0.0"
"620","-0.007209999999999717","-0.02223499999999934"
"621","-0.02241000000000959","-0.011725000000000207"
"622","-0.009997499999998993","-0.014490000000001224"
"623","0.0","0.0"
"624","0.0","0.0"
"625","-0.0014899999999897773","-0.009319999999998885"
"626","-0.010034999999999647","-0.013190000000000405"
"627","-0.016140000000000043","-0.008513333333330783"
"628","-0.017321999999997218","-0.00993400000000122"
"629","-0.013558571428573276","-0.026941428571428765"
"630","-0.015870000000001383","-0.015267499999999323"
"631","-0.014027368421052998","-0.01132473684210604"
"632","-0.01121384615384467","-0.009385384615384577"
"633","-0.0066770588235276224","-0.00974941176470523"
"634","-0.010402500000004089","-0.0069275000000006415"
"635","-0.010301999999998656","-0.010957999999998691"
"636","-0.004666842105264304","-0.00453842105263123"
"637","-0.10292039999999958","-0.03532440000000008"
"638","-0.01564730769230767","-0.014975769230769487"
"639","-0.017209375000000637","-0.021388749999999623"
"640","-0.05785999999999921","-0.02046999999999836"
"641","-0.009275999999999129","-0.007259000000000171"
"642","-0.04094562499999821","-0.020660624999999877"
"643","-0.009448750000000672","-0.007343750000000426"
"644","-0.013835416666664102","-0.009956250000000258"
"645","-0.014952352941176961","-0.009211617647058676"
"646","-0.017327000000001647","-0.02099000000000011"
"647","0.0","0.0"
"648","-0.026091666666667734","-0.026822916666666845"
"649","-0.025337222222222837","-0.028868888888889624"
"650","-0.02717421052631676","-0.02187315789473618"
"651","-0.037966874999999956","-0.03409968749999992"
"652","-0.019192727272725002","-0.01623151515151528"
"653","-0.030502083333333967","-0.03475625000000034"
"654","-0.04078437500000165","-0.04527437499999987"
"655","-0.05114551724137794","-0.056651724137930945"
"656","-0.045609999999996376","-0.041789999999998884"
"657","0.0","0.0"
"658","-0.03178250000000915","-0.022982500000002126"
"659","-0.02232999999998242","-0.029884999999998385"
"660","-0.0875999999999948","-0.03403000000000134"
"661","-0.03977333333332922","-0.0186833333333342"
"662","-0.019840000000002078","-0.005023333333333824"
"663","-0.026641666666667636","-0.012393333333333109"
"664","-0.020044000000003594","-0.01435599999999937"
"665","-0.040773999999999685","-0.02751599999999783"
"666","-0.0320349999999987","-0.018072499999999714"
"667","-0.01617500000000005","-0.017732499999999263"
"668","0.0","0.0"
"669","-0.012835000000000818","-0.0075649999999996"
"670","-0.0012799999999977274","-0.003959999999999297"
"671","-0.02991000000000099","-0.02967999999999904"
"672","-0.003199999999992542","-3.700000000037562E-4"
"673","-0.024449999999997578","-0.012534285714286244"
"674","-0.004964999999995001","-0.02395999999999887"
"675","0.0","0.0"
"676","-0.009638571428570941","-0.010439285714285365"
"677","-0.10157499999999686","-0.026689999999998548"
"678","-0.01108250000000055","-0.01400000000000201"
"679","-0.02387600000000134","-0.023347999999998592"
"680","-0.007871875000001083","-0.008947499999999664"
"681","-0.014041249999999117","-0.011626250000001725"
"682","-0.010864545454544001","-0.012807272727272334"
"683","-0.006780588235291753","-0.006832941176471256"
"684","-0.03059333333333214","-0.015843333333334247"
"685","-0.021502500000001607","-0.021174166666667382"
"686","-0.005925263157895924","-0.0070773684210519"
"687","-0.026515624999999154","-0.0217325000000006"
"688","-0.021503684210526928","-0.012898421052631491"
"689","-0.019275142857143074","-0.013761714285714634"
"690","-0.0109025000000047","-0.009609374999999698"
"691","-0.011303928571428859","-0.012584999999999878"
"692","-0.01213868421052554","-0.02233447368421054"
"693","-0.008725882352943954","-0.01106294117647005"
"694","-0.0191370370370402","-0.014996666666666178"
"695","-0.0231295238095235","-0.023144523809523778"
"696","-0.012522777777779166","-0.014899722222222344"
"697","-0.013096749999999702","-0.012269499999999845"
"698","-0.03958281249999818","-0.042673124999999756"
"699","-0.044558709677419886","-0.039285806451612386"
"700","-0.03042689655172749","-0.03135586206896592"
"701","-0.021996399999998743","-0.036621599999999435"
"702","-0.03233452830188542","-0.04021792452830217"
"703","-0.03900571428571352","-0.03315428571428603"
"704","-0.01967000000000259","-0.008296666666667877"
"705","-0.022572499999999884","-0.021692500000000337"
"706","-0.011060000000000514","-0.020150000000002777"
"707","-0.01768333333333298","-0.16655333333333408"
"708","-0.03553666666666307","-0.034446666666667625"
"709","-0.013864666666665925","-0.009377999999999057"
"710","-0.8800475000000036","-0.04953999999999903"
"711","-0.024555000000000327","-0.00818500000000455"
"712","-0.01203999999999894","-0.004659999999997666"
"713","-0.007674999999991883","-0.010640000000000427"
"714","-0.01875999999999915","-0.01776666666666789"
"715","-0.031040000000000845","-0.013049999999999784"
"716","0.0","0.0"
"717","-0.01782000000000039","-0.0030233333333337478"
"718","-0.029279999999995237","-0.03858666666666603"
"719","-0.027620000000000998","-0.005813999999998742"
"720","-0.004953333333331737","-0.00770333333333421"
"721","-0.01132666666666419","-0.005096666666666749"
"722","-0.004179999999996653","-0.008841999999999928"
"723","-0.009125000000000938","-0.011786666666666315"
"724","-0.008320000000004768","-2.2999999999839815E-4"
"725","-0.005774999999996311","-0.012510000000000687"
"726","-0.016419999999998918","-0.009626666666666969"
"727","0.0","0.0"
"728","-0.021723333333335166","-0.013023333333333534"
"729","-0.020596666666667336","-0.019618333333333737"
"730","-0.005161818181819136","-0.006381818181817842"
"731","-0.16858113636363664","-0.04907090909090856"
"732","-0.016514545454546174","-0.013506363636363261"
"733","-0.014574999999998303","-0.010771666666667143"
"734","-0.010528387096773974","-0.010444516129031547"
"735","-0.011388333333333852","-0.010662222222221216"
"736","-0.009032758620688879","-0.010178620689655119"
"737","-0.013077307692307673","-0.012720769230768907"
"738","-0.012994117647056335","-0.005987058823529502"
"739","-0.007364583333332675","-0.005783333333333325"
"740","-0.009805479452053843","-0.011721780821917603"
"741","-0.019848888888891577","-0.018633333333333724"
"742","-0.017858333333330666","-0.018721428571428587"
"743","-0.012635471698114005","-0.011664716981132018"
"744","-0.013789599999996086","-0.01108920000000026"
"745","-0.035986176470588556","-0.054669117647059465"
"746","-0.03508343749999998","-0.030615625000000035"
"747","-0.030701874999998324","-0.026366250000000147"
"748","-0.041830263157893684","-0.04406052631578944"
"749","-0.03251000000000204","-0.03967244444444431"
"750","-0.284065217391302","-0.06021000000000066"
"751","-0.016074444444446574","-0.014575555555556403"
"752","-0.005628823529411442","-0.012753529411764428"
"753","0.0","0.0"
"754","-0.030500000000004707","-0.02020249999999842"
"755","-0.018624166666666515","-0.010364166666665989"
"756","-0.004131578947367954","-0.007680000000001323"
"757","-0.02312999999999743","-0.012976666666665674"
"758","-0.0048199999999951615","-0.0024299999999968236"
"759","-0.004910000000009518","-0.005940000000002499"
"760","-0.019899999999996254","-0.008869999999994604"
"761","-0.04591800000000177","-0.039179999999998924"
"762","-0.012108333333332055","-0.017018333333333874"
"763","-0.015360000000003518","-0.014566666666671798"
"764","-0.013235714285713638","-0.009632857142857379"
"765","-0.01108666666666617","-0.008170000000004526"
"766","-0.023892499999998762","-0.012577499999995467"
"767","-0.04701000000000022","-0.06379000000000445"
"768","-0.0039749999999987295","-0.006344999999999601"
"769","-0.007952500000000029","-0.012369999999998882"
"770","-0.016429999999999723","-0.00190000000000623"
"771","-0.0027100000000004343","-0.004719999999998947"
"772","-0.001959999999996853","-0.0034999999999953957"
"773","-0.006290000000007012","-0.01606999999999914"
"774","-0.008542500000002562","-0.0029524999999992474"
"775","-0.0076633333333309865","-0.004113333333333931"
"776","-0.0052075000000044724","-0.00992500000000085"
"777","-0.008124166666665525","-0.008010833333334114"
"778","-0.011757272727274297","-0.010199090909092686"
"779","-0.011525000000001562","-0.007078750000000689"
"780","-0.008075714285717643","-0.006537142857142035"
"781","-0.007645000000003677","-0.0023700000000026478"
"782","-0.0040905555555556345","-0.007258333333333884"
"783","-0.006551000000000329","-0.008531666666666382"
"784","-0.011353157894733923","-0.009157894736842078"
"785","-0.06696294117647028","-0.02500588235294204"
"786","-0.011014090909089124","-0.009685909090908012"
"787","-0.04724288888888913","-0.14291477777777822"
"788","-0.011649456521740306","-0.011970760869564579"
"789","-0.022382388059701178","-0.016832985074627663"
"790","-0.4772069767441842","-0.2886129069767443"
"791","-0.030276734693877493","-0.017571224489794996"
"792","-0.26273961538461504","-0.4017413461538457"
"793","-0.051159342105262004","-0.22149092105263168"
"794","-0.028329743589746197","-0.015248717948717391"
"795","-0.019607900000000882","-0.01630719999999968"
"796","-0.041907692307695206","-0.03319076923076763"
"797","-0.013556923076926899","-0.008016923076923742"
"798","-0.015529999999998267","-0.012050909090911817"
"799","-0.007569565217393231","-0.020551304347826878"
"800","-0.01880428571428386","-0.03040428571428525"
"801","-0.042393500000000015","-0.00939799999999984"
"802","-0.03898444444444414","-0.020905555555554796"
"803","-0.003189999999989368","-0.015710000000005664"
"804","-0.01130400000000229","-0.009574000000002058"
"805","-0.0025549999999974204","-0.005071250000000305"
"806","-0.009513333333329635","-0.011706666666668752"
"807","0.0","0.0"
"808","0.0","0.0"
"809","-0.0040700000000022385","-0.002369999999999095"
"810","-0.0032733333333337575","-0.00887000000000171"
"811","-0.008602857142852725","-0.007245714285716076"
"812","-0.014533999999999025","-0.005571999999995114"
"813","-0.02400999999999911","-0.024532000000000664"
"814","-0.005530000000000257","-0.01735500000000023"
"815","-0.002444999999998032","-0.006262500000005389"
"816","-0.019325000000002035","-0.008774999999999977"
"817","-0.0018099999999918737","-0.012310000000006482"
"818","0.0","0.0"
"819","-0.013014285714285328","-0.015075714285716555"
"820","-0.007583333333331647","-0.006100000000001178"
"821","-0.007760833333332921","-0.0066666666666659324"
"822","-0.008112352941177606","-0.008272941176469614"
"823","-0.005712105263158737","-0.007491578947369398"
"824","-0.004844999999999544","-0.007251666666666286"
"825","-0.010276249999999543","-0.006087500000002244"
"826","-0.008330000000001548","-0.006208999999999421"
"827","-0.011765999999995813","-0.014997999999998513"
"828","-0.027463999999997667","-0.02981400000000036"
"829","-0.006029999999999092","-0.008336666666666659"
"830","-0.022346666666667403","-0.01058833333333394"
"831","-0.01235410256410264","-0.007673076923076758"
"832","-0.005430277777775593","-0.009591388888889045"
"833","-0.007400357142857266","-0.006840714285716183"
"834","-0.6431542499999992","-0.23070125"
"835","-0.010534054054055083","-0.007097297297297464"
"836","-0.010733275862067208","-0.011754655172413184"
"837","-0.01853578947368256","-0.013130789473684209"
"838","-0.0291123809523778","-0.021575238095238432"
"839","-0.019825483870967504","-0.31910580645161174"
"840","-0.024072982456140493","-0.020480350877193507"
"841","-0.011888541666667862","-0.018754375000000174"
"842","-0.01059313432835858","-0.01377805970149318"
"843","-0.00781235294117935","-0.009763529411764145"
"844","-0.005985000000000795","-0.010462500000000485"
"845","-0.008717499999995937","-0.008614999999997153"
"846","-0.01661111111110674","-0.02739444444444435"
"847","-0.011564999999999891","-0.01354117647058886"
"848","-0.011560000000002901","-0.00911333333333412"
"849","-0.009770000000003165","-0.006169999999997344"
"850","-0.013536666666666974","-0.04717333333333329"
"851","-0.005021999999999594","-0.009157999999996492"
"852","-0.00888153846153823","-0.009366153846152896"
"853","-0.0075224999999998765","-0.004402499999999421"
"854","-0.020733333333338304","-0.04121111111111099"
"855","-0.03483000000001368","-0.01617999999999853"
"856","-0.007007999999999015","-0.002876000000003387"
"857","-0.03641749999999888","-0.01433250000000541"
"858","-0.007970000000000255","-0.017067499999997793"
"859","-0.007108749999999997","-0.0100175000000009"
"860","-0.005482000000007048","-0.0045639999999991685"
"861","-0.012201666666666","-0.006903333333331337"
"862","-0.006112857142857327","-0.003912857142855349"
"863","-0.00500333333333695","-0.007040000000001119"
"864","-0.003122499999999917","-0.0029650000000014387"
"865","-0.007781999999999556","-0.004457000000000733"
"866","-0.005304999999998709","-0.0029766666666676636"
"867","-0.0061217647058819415","-0.006304705882352082"
"868","-0.01384999999999792","-0.012055000000007254"
"869","-0.008623333333330171","-0.007593333333330084"
"870","-0.012529999999998154","-5.60000000000116E-4"
"871","-0.004504999999998205","-0.009390000000006893"
"872","-0.007947272727272874","-0.006855454545455653"
"873","-0.006715000000002469","-0.007031249999999822"
"874","-0.01122416666666659","-0.012193333333332982"
"875","-0.005230000000000769","-0.005028947368420084"
"876","-0.006127058823527755","-0.006300588235292788"
"877","-0.013413125000000026","-0.010466874999998321"
"878","-0.006811071428571783","-0.006777857142856851"
"879","-0.008992000000002064","-0.0096940000000032"
"880","-0.008735217391306527","-0.0069869565217384475"
"881","-0.011353235294118868","-0.015728529411762875"
"882","-0.008225277777777349","-0.009352222222221663"
"883","-0.010394642857143564","-0.008625892857142705"
"884","-0.009327058823529074","-0.011887941176468702"
"885","-0.026833076923075794","-0.015808076923077372"
"886","-0.01879037735848928","-0.014363773584905646"
"887","-0.014714210526316893","-0.017493508771929674"
"888","-0.006395342465752604","-0.010107260273972636"
"889","-0.006864499999998585","-0.010279250000000673"
"890","-0.00751933333333928","-0.014114666666667592"
"891","-0.005082000000004428","-0.020896000000001892"
"892","-0.015728750000001845","-0.013144375000000874"
"893","-0.017957499999994297","-0.03684000000000154"
"894","-0.007584999999998843","-0.009435000000003413"
"895","-0.005059047619047604","-0.006684285714286597"
"896","-0.0052922222222251646","-0.006869999999999266"
"897","-0.00932714285714147","-0.007534285714284701"
"898","-0.018117142857141895","-0.01879142857142873"
"899","-0.03523000000000032","-0.012946666666664441"
"900","-0.05200000000000049","-0.03391500000000036"
"901","-0.008046666666669347","-0.02724666666666664"
"902","-0.008708333333333465","-0.010195000000000695"
"903","-0.010689999999997942","-0.009327777777778736"
"904","-0.0019300000000015416","-0.005180000000002849"
"905","-0.013065789473684518","-0.007928421052631725"
"906","-0.007855999999998175","-0.004106000000001586"
"907","-0.009387272727272617","-0.0037654545454553945"
"908","-0.005689999999997752","-0.004965000000002107"
"909","-0.0037920000000056576","-0.0030779999999978715"
"910","-0.004443333333329728","-0.0035933333333299324"
"911","-0.008032999999998935","-0.008166000000002071"
"912","-0.0056306250000015545","-0.006939999999998836"
"913","-0.008332727272730267","-0.00589545454545324"
"914","-0.00341652173913069","-0.005468913043478127"
"915","-0.005795714285714634","-0.004061428571427582"
"916","-0.007879230769230635","-0.006163846153846464"
"917","-0.0056200000000004025","-0.005154444444444708"
"918","-0.010794999999999888","-0.0050837499999998315"
"919","-0.009761818181818104","-0.006426363636364194"
"920","-0.010590526315788688","-0.009319473684210927"
"921","-0.008957916666665788","-0.007708333333332836"
"922","-0.020078666666666342","-0.00797533333333244"
"923","-0.019540000000000897","-0.020172352941174535"
"924","-0.009208749999999988","-0.005969375000000721"
"925","-0.007111111111111907","-0.008647777777777636"
"926","-0.007519999999999527","-0.010506666666666812"
"927","-0.01343181818181966","-0.008955454545457542"
"928","-0.008446666666666639","-0.005220000000001335"
"929","-0.009461086956520457","-0.014898043478259505"
"930","-0.010555853658535822","-0.007777317073172042"
"931","-0.08712173913043408","-0.04241434782608877"
"932","-0.00904391304347833","-0.011924782608696638"
"933","-0.026047575757576772","-0.05195393939393988"
"934","-0.0188734999999987","-0.012109499999999685"
"935","-0.00853666666666568","-0.008828444444444333"
"936","-0.009026896551725339","-0.011700000000000786"
"937","-0.006898823529412238","-0.00899235294117731"
"938","-0.004272857142855254","-0.03201714285714478"
"939","-0.009240000000000729","-0.01824333333333546"
"940","-0.0065226666666675205","-0.008646666666666173"
"941","-0.015500000000002956","-0.036489999999997025"
"942","-0.00702749999999952","-0.010800000000001475"
"943","-0.0017699999999862825","-0.010594999999995025"
"944","-0.002693333333326109","-0.015366666666667564"
"945","-0.01081142857143266","-0.008902857142857101"
"946","-0.011994166666667194","-0.015399999999998451"
"947","-0.006159999999990617","-0.003922500000003382"
"948","-0.003992000000005191","-0.008896000000000015"
"949","-0.004661249999998507","-0.0071424999999996075"
"950","0.0","0.0"
"951","-0.005382857142855103","-0.008600714285713755"
"952","-0.008720833333332697","-0.005861666666665026"
"953","-0.009761428571432569","-0.006488571428571431"
"954","-0.014460000000002063","-0.00648666666666347"
"955","-0.0079642857142872","-0.008647142857143868"
"956","-0.004510000000000299","-0.008702857142859597"
"957","-0.005364166666666392","-0.010354999999999373"
"958","-0.008936666666669405","-0.007083333333331628"
"959","-0.0029159999999976093","-0.006354000000000326"
"960","-0.00843285714285713","-0.004354285714286326"
"961","-0.006963999999997838","-0.0052960000000013"
"962","-0.008805714285711832","-0.006762857142856912"
"963","-0.013512000000000057","-0.009297999999998297"
"964","-0.0031184615384626333","-0.006700000000000509"
"965","-0.00505500000000314","-0.009421250000001713"
"966","-0.0034512500000021262","-0.004127500000000062"
"967","-4.3000000000148475E-4","-0.001269999999998106"
"968","-0.035059999999990765","-0.016784999999998718"
"969","0.0","0.0"
"970","0.0","0.0"
"971","-0.00942000000000102","-0.010166666666667842"
"972","-0.007799999999999585","-0.0038974999999972226"
"973","-0.008560909090905707","-0.0033300000000008627"
"974","-0.006598500000000484","-0.011435000000001949"
"975","-0.008909999999995028","-0.007815454545455484"
"976","-0.0056731034482771945","-0.00875310344827575"
"977","-0.009130333333331464","-0.007088666666667602"
"978","-0.009534642857144908","-0.006446071428571644"
"979","-0.0044517391304341545","-0.008151739130434644"
"980","-0.005662000000002839","-0.006354666666666731"
"981","-0.00742763157894899","-0.006924473684210815"
"982","-0.010906769230768111","-0.01345876923076857"
"983","-0.00902612903225753","-0.01136548387096712"
"984","-0.016582413793102057","-0.02033241379310232"
"985","0.0","0.0"
"986","0.0","0.0"
"987","-0.011009999999998854","-0.021256666666668405"
"988","-0.009890909090909577","-0.008896363636362087"
"989","-0.0038209999999992304","-0.01679499999999905"
"990","-0.005279999999999063","-0.008709999999993556"
"991","-0.006614000000001852","-0.005628000000004363"
"992","-0.005745714285713228","-0.0031714285714272705"
"993","-0.006513333333333075","-0.00980666666666489"
"994","-0.005415454545453971","-0.0059963636363633555"
"995","-0.003756250000002126","-0.009457499999999008"
"996","-0.003050000000002484","-0.0073939999999964815"
"997","-0.0056271428571419745","-0.009472142857143848"
"998","-0.0050041176470605984","-0.007387647058822007"
"999","-0.00675722222222181","-0.01203055555555663"
"1000","-0.006909333333331347","-0.005639333333335135"
"1001","-0.006742666666666963","-0.010791999999999292"
"1002","-0.002338888888888767","-0.004927777777777149"
"1003","-0.004901176470588474","-0.004697058823529854"
"1004","-0.003128000000000952","-0.006929999999998415"
"1005","-0.0037039999999990414","-0.00562399999999883"
"1006","-0.004537500000000823","-0.0077141666666674285"
"1007","-0.001676666666663588","-0.014699999999997715"
"1008","-0.006140000000000002","-0.007465714285714853"
"1009","-0.009084999999999788","-0.006959999999999411"
"1010","-0.0038825000000031196","-0.005399999999999849"
"1011","0.0","0.0"
"1012","-0.010290000000002427","-0.010833333333332954"
"1013","-0.007849999999997692","-0.020139999999997826"
"1014","-0.02267000000000034","-0.016440000000005266"
"1015","-0.00630999999999915","-0.010395000000002597"
"1016","-0.01036999999999703","-0.005946666666666545"
"1017","-0.0036433333333315923","-0.006366666666667224"
"1018","-0.005560000000002674","-0.0037799999999990064"
"1019","-0.007789999999985753","-0.0037699999999958322"
"1020","-0.011654285714286061","-0.01531714285714157"
"1021","-0.007966666666668232","-0.004548333333331082"
"1022","-0.010005999999998494","-0.005667999999997164"
"1023","-0.007340714285714763","-0.007066428571428267"
"1024","-0.15206047619047677","-0.7559419047619051"
"1025","-0.00963999999999506","-0.005343333333332367"
"1026","-0.004977142857141882","-0.004153809523810112"
"1027","-0.0038907692307667764","-0.008224615384615564"
"1028","-0.001933333333335933","-0.010123333333337333"
"1029","-0.009759999999999991","-0.04240333333333505"
"1030","-0.011988571428572316","-0.017122142857144036"
"1031","-0.005193333333333309","-0.010656666666669423"
"1032","0.0","0.0"
"1033","0.0","0.0"
"1034","-0.022740000000013083","-0.001069999999998572"
"1035","-0.011747999999996228","-0.011562000000002116"
"1036","-0.014386857142859024","-0.015604571428572253"
"1037","-0.01792285714285808","-0.019214285714286104"
"1038","-0.005717857142859296","-0.007029999999998283"
"1039","-0.010881875000001373","-0.009452500000000086"
"1040","-0.006857000000002955","-0.012496999999998338"
"1041","-0.007573333333332263","-0.010949333333332827"
"1042","-0.007000285714284006","-0.006585428571428663"
"1043","-0.006418888888886877","-0.006810000000001932"
"1044","-0.006243728813559897","-0.006717288135593028"
"1045","-0.004643499999998468","-0.0084309999999995"
"1046","-0.0059100000000005554","-0.0039199999999998646"
"1047","-0.004437499999999576","-0.005885833333334034"
"1048","-0.005607142857143239","-0.007478571428569987"
"1049","-0.005654000000000892","-0.008348999999999052"
"1050","-0.015784999999997495","-0.016620000000003188"
"1051","-0.00443250000000095","-0.00577500000000164"
"1052","-0.00884222222222301","-0.005443333333333318"
"1053","-0.002989999999999782","-0.00453200000000038"
"1054","-0.005819999999999936","-0.004342499999999916"
"1055","-0.0015266666666633455","-0.005669999999997326"
"1056","-0.01290500000000172","-0.011427499999999924"
"1057","-0.013244000000000256","-0.02252799999999979"
"1058","-0.004790000000003403","-0.016487500000003763"
"1059","-0.00834199999999612","-0.007556000000001006"
"1060","-0.009779999999997457","-0.004435000000000855"
"1061","-0.005577499999995794","-0.005185000000000883"
"1062","-0.021200000000007435","-0.004290000000004568"
"1063","-0.4096100000000031","-0.015929999999997335"
"1064","-0.0059800000000009845","-0.006100000000003547"
"1065","-0.013006666666669275","-0.007946666666668989"
"1066","-0.019934000000000653","-0.009521999999999763"
"1067","-0.019883999999996148","-0.020276000000001203"
"1068","-0.01669000000000646","-0.011466666666668365"
"1069","-0.003860000000003083","-0.005225000000002922"
"1070","-0.011069999999989477","-5.399999999937677E-4"
"1071","-0.005757777777776912","-0.004058888888889574"
"1072","-0.005014090909086958","-0.012330454545455893"
"1073","-7.899999999807505E-4","-0.0015550000000068565"
"1074","0.0","0.0"
"1075","0.0","0.0"
"1076","-0.003856666666668692","-0.02077666666666289"
"1077","0.0","0.0"
"1078","0.0","0.0"
"1079","0.0","0.0"
"1080","0.0","0.0"
"1081","0.0","0.0"
"1082","-0.013599374999999941","-0.014639375000002453"
"1083","-0.007133030303029165","-0.009896060606062228"
"1084","-0.008311111111111446","-0.013875925925925627"
"1085","-0.00785714285714491","-0.014314285714284327"
"1086","-0.005605000000000304","-0.006457499999998895"
"1087","-0.010115714285715402","-0.00848928571428382"
"1088","-0.009137999999998552","-0.007356333333333964"
"1089","-0.012355090909090517","-0.010188363636364463"
"1090","-0.011921875000000007","-0.012677708333333518"
"1091","-0.002164545454544899","-0.008479090909092562"
"1092","-0.015522857142856188","-0.012488571428570643"
"1093","-0.014520000000000532","-0.012706249999998143"
"1094","-0.010090000000002182","-0.014179333333334416"
"1095","-0.018905384615383818","-0.008629999999999863"
"1096","-0.00612999999999797","-0.029534999999995648"
"1097","-0.0019700000000000273","-0.033960000000000434"
"1098","0.0","0.0"
"1099","-0.01152249999999988","-0.006372499999994119"
"1100","0.0","0.0"
"1101","0.0","0.0"
"1102","0.0","0.0"
"1103","0.0","0.0"
"1104","-0.03889000000000209","-0.008750000000006253"
"1105","-0.02104500000000087","-0.005890000000000839"
"1106","0.0","0.0"
"1107","-0.028166666666666156","-0.013343333333333854"
"1108","-0.014170000000000016","-0.006400000000002848"
"1109","-0.001319999999996213","-0.003750000000000142"
"1110","-0.030660000000004572","-0.029009999999999536"
"1111","-0.00538500000000397","-0.007664999999999367"
"1112","-0.003585000000008165","-0.004604999999997972"
"1113","-0.011719999999996844","-0.006199999999999761"
"1114","-0.003140000000001919","-0.006109999999999616"
"1115","-0.007413333333332162","-0.0024800000000008517"
"1116","-0.008590000000007572","-0.00620000000000213"
"1117","0.0","0.0"
"1118","-0.007044999999990864","-0.01906749999999846"
"1119","-0.007125000000002046","-0.002165000000001527"
"1120","-0.007930000000001769","-0.005749999999999034"
"1121","-0.010329999999996176","-0.0021949999999968384"
"1122","-0.00615000000000047","-0.002646666666670683"
"1123","-0.00332000000000221","-0.002649999999999153"
"1124","-0.009734999999999161","-0.011344999999998606"
"1125","-0.016373333333324542","-0.04960333333333485"
"1126","-0.022930000000002337","-0.04145000000000465"
"1127","0.0","0.0"
"1128","0.0","0.0"
"1129","-0.0033666666666697744","-0.020559999999998507"
"1130","-0.01708588235294098","-0.01513323529411662"
"1131","-0.010662880000001188","-0.014527279999999905"
"1132","-0.008048181818181737","-0.005875681818182149"
"1133","-0.019035249999999858","-0.009050749999999042"
"1134","-0.014454411764705476","-0.012141764705882248"
"1135","-0.015799285714285967","-0.02234285714285633"
"1136","-0.018126000000000055","-0.01432933333333324"
"1137","-0.01701666666666273","-0.023543333333332188"
"1138","-5.200000000016303E-4","-1.0999999999938836E-4"
"1139","-0.011590000000001766","-0.003689999999998861"
"1140","-0.006410000000002469","-9.099999999904185E-4"
"1141","-0.013539999999998997","-0.0016400000000089676"
"1142","-3.700000000002035E-4","-0.0013000000000076284"
"1143","0.0","0.0"
"1144","0.0","0.0"
"1145","0.0","0.0"
"1146","0.0","0.0"
"1147","0.0","0.0"
"1148","0.0","0.0"
"1149","0.0","0.0"
"1150","0.0","0.0"
"1151","0.0","0.0"
"1152","0.0","0.0"
"1153","0.0","0.0"
"1154","0.0","0.0"
"1155","0.0","0.0"
"1156","0.0","0.0"
"1157","0.0","0.0"
"1158","0.0","0.0"
"1159","0.0","0.0"
"1160","0.0","0.0"
"1161","0.0","0.0"
"1162","0.0","0.0"
"1163","0.0","0.0"
"1164","-0.008768571428569365","-0.018412857142856915"
"1165","-0.00762333333333487","-0.00820166666666348"
"1166","0.0","0.0"
"1167","0.0","0.0"
"1168","0.0","0.0"
"1169","0.0","0.0"
"1170","0.0","0.0"
"1171","0.0","0.0"
"1172","0.0","0.0"
"1173","-0.025500000000008072","-0.06790000000000163"
"1174","-0.014584642857144559","-0.027750000000000035"
