"cell_id","acc_x","acc_y"
"0","0.0","0.0"
"1","0.0","0.0"
"2","0.0","0.0"
"3","0.0","0.0"
"4","0.0","0.0"
"5","0.0","0.0"
"6","0.0","0.0"
"7","0.0","0.0"
"8","0.0","0.0"
"9","0.0","0.0"
"10","0.0","0.0"
"11","0.0","0.0"
"12","0.0","0.0"
"13","0.0","0.0"
"14","0.0","0.0"
"15","0.008367999999999754","0.008165999999999975"
"16","0.0","0.0"
"17","0.0","0.0"
"18","0.0","0.0"
"19","0.0","0.0"
"20","0.0","0.0"
"21","0.0","0.0"
"22","0.0","0.0"
"23","0.0","0.0"
"24","0.0","0.0"
"25","0.0","0.0"
"26","0.0","0.0"
"27","0.0","0.0"
"28","0.0","0.0"
"29","0.0","0.0"
"30","0.0","0.0"
"31","0.0","0.0"
"32","0.0","0.0"
"33","0.006842000000000325","0.009901999999999855"
"34","0.02990999999998678","0.023950000000000138"
"35","0.0053199999999904435","0.014015"
"36","0.0","0.0"
"37","0.003834999999995148","0.012644999999999906"
"38","0.0066460000000034825","0.024274000000000084"
"39","0.0034000000000133923","0.016160000000000174"
"40","0.006099999999994073","0.012271666666666644"
"41","0.008647500000009245","0.017557500000000115"
"42","0.0043160000000057154","0.007732000000000161"
"43","0.012005333333329796","0.013014666666666678"
"44","0.003462553191488745","0.005405744680851064"
"45","0.005046923076922492","0.00832076923076924"
"46","0.0","0.0"
"47","0.0","0.0"
"48","0.0","0.0"
"49","0.0","0.0"
"50","0.0","0.0"
"51","0.0","0.0"
"52","0.0","0.0"
"53","0.0","0.0"
"54","0.0","0.0"
"55","0.016306666666666914","0.0528300000000003"
"56","0.0017599999999973193","0.07527000000000017"
"57","0.013939999999998065","8.999999999970143E-5"
"58","0.013470000000000463","0.009946666666666845"
"59","0.00938666666666658","0.008979999999999766"
"60","0.0","0.0"
"61","0.005829999999999558","0.007540000000000102"
"62","0.022410000000000707","0.0033400000000001207"
"63","0.0019399999999905049","0.003209999999999935"
"64","0.0","0.0"
"65","0.0","0.0"
"66","0.0","0.0"
"67","0.007645000000000124","0.005479999999999929"
"68","0.031774999999999665","0.02379499999999979"
"69","0.007889999999989072","0.0022100000000002673"
"70","0.0050299999999978695","0.00893000000000003"
"71","0.0073550000000004445","0.005605000000000304"
"72","0.0028099999999966485","7.999999999963592E-5"
"73","0.006780000000002673","0.008570000000000189"
"74","0.009710000000001884","0.015854999999999952"
"75","0.012480000000000047","0.006300000000000194"
"76","0.021110000000000184","0.015225000000000044"
"77","0.009889999999998622","0.013840000000000519"
"78","0.002420000000000755","0.006159999999999499"
"79","0.01875499999999164","0.022315000000000085"
"80","0.012593571428568444","0.019824285714285596"
"81","0.0057800000000156615","0.018530000000000157"
"82","0.0","0.0"
"83","0.0","0.0"
"84","0.02317384615384281","0.014572307692307817"
"85","0.009559999999998818","0.010115384615384646"
"86","0.005622857142857437","0.012824285714285732"
"87","0.005591666666662813","0.010210000000000127"
"88","0.009880000000000186","0.009650000000000306"
"89","0.012117000000000645","0.012776999999999993"
"90","0.005936666666672845","0.012851666666666631"
"91","0.007903043478260261","0.01377195652173912"
"92","0.005586666666665173","0.02011388888888889"
"93","0.0","0.0"
"94","0.0","0.0"
"95","0.0","0.0"
"96","0.0","0.0"
"97","0.0","0.0"
"98","0.009091250000001772","0.02836125000000006"
"99","0.02564428571428477","0.02933428571428579"
"100","0.02839500000000328","0.01988999999999974"
"101","0.02564874999999911","0.032737500000000086"
"102","0.010789999999995104","0.025441999999999788"
"103","0.0","0.0"
"104","0.0","0.0"
"105","0.0","0.0"
"106","0.0","0.0"
"107","0.0","0.0"
"108","0.006713333333333793","0.010429999999999495"
"109","0.009803999999999747","0.008544000000000284"
"110","0.04693125000000142","0.020187500000000136"
"111","0.02032111111111037","0.006172222222222147"
"112","0.016895000000001065","0.004589166666666644"
"113","0.008581666666668042","0.005401666666666749"
"114","0.002282499999999743","0.011877499999999763"
"115","0.0023740000000003645","0.009316000000000279"
"116","0.01656499999999994","0.009399999999999853"
"117","0.0","0.0"
"118","0.017520000000004643","0.009874999999999634"
"119","0.013980000000003656","0.0027999999999996916"
"120","0.006147500000002637","0.014322500000000016"
"121","0.01916333333333616","0.012306666666666763"
"122","0.015680000000003247","0.017999999999999794"
"123","0.008279999999999177","0.018080000000000318"
"124","0.0047666666666638475","0.009843333333333279"
"125","0.013104444444443352","0.013275555555555188"
"126","0.012576000000002096","0.018106999999999828"
"127","0.0115995238095264","0.012206666666666657"
"128","0.013463846153848854","0.013716153846153895"
"129","0.007563333333334772","0.015473333333333303"
"130","0.0090944444444495","0.014425555555555667"
"131","0.0040799999999947545","0.011487499999999762"
"132","0.030621428571428005","0.020161428571428632"
"133","0.0","0.0"
"134","0.005737142857140855","0.01798285714285733"
"135","0.005488888888887939","0.014085555555555414"
"136","0.0034840000000087913","0.010675999999999774"
"137","0.008834999999999735","0.015469999999999968"
"138","0.00936874999999926","0.017174375000000158"
"139","0.00500111111111639","0.022024444444444305"
"140","0.0","0.0"
"141","0.0","0.0"
"142","0.0","0.0"
"143","0.0","0.0"
"144","0.0","0.0"
"145","0.010527499999998469","0.01808625000000008"
"146","0.0","0.0"
"147","0.0","0.0"
"148","0.007537499999999753","0.024485000000000312"
"149","0.01019499999999951","0.016655000000000086"
"150","0.022372857142857732","0.008545714285714443"
"151","0.0","0.0"
"152","0.02455285714285793","0.012674285714285891"
"153","0.01040250000000098","0.00595750000000006"
"154","0.008351000000000042","0.005334999999999823"
"155","0.015097500000003983","0.006170000000000231"
"156","0.009953333333329558","0.012263333333332996"
"157","0.03631692307692392","0.019176153846154002"
"158","0.0061750000000013","0.008008333333333765"
"159","0.012894999999994994","0.0034375000000002043"
"160","0.01447333333333726","0.01440666666666631"
"161","0.0","0.0"
"162","0.002885000000002691","0.006630000000000358"
"163","0.009405000000004549","0.003234999999999655"
"164","0.005105000000000359","0.0057800000000005625"
"165","0.008159999999998982","0.008526666666666571"
"166","0.0035999999999987153","0.005370000000000985"
"167","0.005529999999996704","0.01325500000000046"
"168","0.005865999999998905","0.014551999999999588"
"169","0.016613333333329667","0.019763333333332984"
"170","0.01172000000000395","0.021980000000000555"
"171","0.014470000000000502","0.030446666666666584"
"172","0.013049999999999784","0.009080000000000274"
"173","0.023252499999991905","0.02774874999999999"
"174","0.01218714285714181","0.030598571428571475"
"175","0.017274545454544533","0.017967272727272873"
"176","0.014532000000002654","0.012682000000000127"
"177","0.008967500000000683","0.005949999999999456"
"178","0.009259999999997603","0.014262500000000733"
"179","0.021369999999997447","0.00978500000000082"
"180","0.00926083333333357","0.01804916666666667"
"181","0.007532499999999942","0.015042500000000292"
"182","0.0","0.0"
"183","0.0026666666666699257","0.006823333333333477"
"184","0.006063333333329979","0.0057966666666665985"
"185","0.013838000000009742","0.010861999999999483"
"186","0.012468000000004054","0.025028000000000182"
"187","0.0","0.0"
"188","0.0","0.0"
"189","0.0","0.0"
"190","0.0","0.0"
"191","0.0","0.0"
"192","0.0020900000000002215","0.018746666666666318"
"193","0.0","0.0"
"194","0.03568250000000006","0.03257750000000037"
"195","0.011371666666671368","0.020876666666666505"
"196","0.01596333333332704","0.02150166666666653"
"197","0.015400000000003189","0.026241111111111257"
"198","0.020796363636364713","0.04006909090909083"
"199","0.008046923076922879","0.012991538461538409"
"200","0.016851249999998874","0.00872874999999984"
"201","0.010445000000004256","0.008625000000000327"
"202","0.006983333333331861","0.012583333333333021"
"203","0.050171428571428374","0.01805571428571438"
"204","0.008449999999997479","0.016719999999999402"
"205","0.006745000000000445","0.012602500000000516"
"206","0.010979999999996437","0.005369999999997432"
"207","0.0","0.0"
"208","0.010929999999994777","0.0072400000000012454"
"209","0.0019800000000032014","0.008930000000001215"
"210","5.250000000032173E-4","0.01162500000000044"
"211","2.89999999992574E-4","0.005990000000000606"
"212","0.0033299999999982788","0.004340000000000899"
"213","0.001693333333330808","0.007450000000000401"
"214","0.0","0.0"
"215","0.002519999999996969","0.007400000000000517"
"216","0.0036199999999944055","0.011009999999999742"
"217","0.02109999999999701","0.008219999999999672"
"218","0.00778749999999917","0.0061350000000000016"
"219","0.01432333333333307","0.012202222222221733"
"220","0.010404999999998665","0.01980000000000004"
"221","0.0060800000000060805","0.00511999999999968"
"222","0.007421111111111618","0.01053500000000006"
"223","0.006128571428579984","0.013657142857143256"
"224","0.011320000000011987","0.002160000000000828"
"225","0.05705000000000382","0.07542000000000026"
"226","0.004779999999982465","0.008760000000000545"
"227","0.011274999999996283","0.018971999999999857"
"228","0.0054800000000057025","0.004532500000000272"
"229","0.0","0.0"
"230","0.0054733333333321825","0.004106666666667221"
"231","0.007511666666663548","0.004449999999999991"
"232","0.0","0.0"
"233","0.014946000000000481","0.011873999999999718"
"234","0.0028849999999991383","0.017585000000000406"
"235","0.0","0.0"
"236","0.0","0.0"
"237","0.0","0.0"
"238","0.02125666666666663","0.029103333333334074"
"239","0.013449999999998852","0.016591666666666487"
"240","0.018050000000002342","0.02938499999999955"
"241","0.016064000000001143","0.00966999999999949"
"242","0.008568000000001953","0.007919999999999483"
"243","0.005207499999996035","0.011090000000000266"
"244","0.002515000000000711","0.012494999999999479"
"245","0.00628571428571334","0.009898571428571248"
"246","0.013964444444445136","0.010632222222221956"
"247","0.006238750000001847","0.011098749999999713"
"248","0.008697499999999062","0.009930833333333519"
"249","0.004531874999998964","0.0036812500000000803"
"250","0.008803571428570831","0.013089285714285153"
"251","0.05999999999999943","0.021480000000000034"
"252","0.041200000000003456","0.006809999999997984"
"253","0.0028599999999983083","0.009194999999998288"
"254","0.0","0.0"
"255","0.00590666666666569","0.008136666666667717"
"256","0.002304999999998003","0.009944999999999649"
"257","0.0041399999999995885","0.004747500000000571"
"258","0.003650000000000375","0.00330333333333351"
"259","0.0038299999999971135","0.0067149999999998045"
"260","0.0012499999999917577","0.019705000000000084"
"261","0.0010625000000050733","0.006445000000000256"
"262","0.0","0.0"
"263","0.0","0.0"
"264","0.0025450000000013517","0.0028100000000010894"
"265","0.007979999999996323","0.012119999999997688"
"266","0.009115454545453422","0.012081818181818122"
"267","0.011256249999996193","0.011339999999999906"
"268","0.018174285714284873","0.014428571428571553"
"269","0.010261250000000999","0.011053750000000306"
"270","0.004649999999983834","0.0031499999999979877"
"271","0.0031866666666691876","0.0184966666666669"
"272","0.011830000000008075","0.00899999999999975"
"273","0.004285000000000612","0.00962999999999988"
"274","0.0030266666666657707","0.007293333333333744"
"275","0.004475833333331754","0.017989999999999878"
"276","0.007613333333335643","0.012937777777778455"
"277","0.0033500000000022587","0.0043033333333326595"
"278","0.0048316666666702686","0.008788333333333695"
"279","0.023023333333332136","0.025016666666667575"
"280","0.022226666666668393","0.025026666666666014"
"281","0.018690000000020746","0.029419999999998225"
"282","0.0","0.0"
"283","0.029802499999999954","0.05863750000000012"
"284","0.0","0.0"
"285","0.0","0.0"
"286","0.023426000000000613","0.007603999999999544"
"287","0.02172727272727183","0.030951818181818167"
"288","0.009126153846152417","0.011536153846154234"
"289","0.006543888888887868","0.011654444444444757"
"290","0.007342222222224236","0.008428333333333309"
"291","0.007723703703703545","0.0095092592592594"
"292","0.004369999999995144","0.007284000000001001"
"293","0.003347142857141502","0.005810000000000822"
"294","0.0133712500000005","0.017598749999999885"
"295","0.014649999999998187","0.007432000000000194"
"296","0.006192352941177357","0.008497058823529672"
"297","0.005576250000002503","0.009324999999999806"
"298","0.002410000000004686","0.003040000000002152"
"299","0.0","0.0"
"300","0.017565000000001163","0.003490000000000215"
"301","0.013355999999996015","0.006885999999999726"
"302","0.00968545454545413","0.007745454545455065"
"303","0.013773529411764684","0.007274705882352768"
"304","0.007712000000000785","0.012521999999999167"
"305","0.009440000000005","0.014924999999999855"
"306","0.002543750000000955","0.013711250000000286"
"307","0.009299473684208692","0.006027368421053038"
"308","0.012214285714288207","0.012245714285714573"
"309","0.00796428571428517","0.016257142857143032"
"310","0.013223750000000756","0.007833750000000528"
"311","0.005337499999995998","0.008272500000000127"
"312","0.0043477777777770005","0.012357777777777714"
"313","0.006964545454545662","0.011881818181818427"
"314","0.01432941176470676","0.015774705882352604"
"315","0.009850625000001223","0.010560000000000569"
"316","0.010003000000003226","0.01376899999999992"
"317","0.012166153846155662","0.009388461538461384"
"318","0.007615625000005011","0.011289374999999935"
"319","0.004006666666668934","0.00847666666666728"
"320","0.0","0.0"
"321","0.0","0.0"
"322","0.01904999999998817","0.006543333333334307"
"323","0.006820000000004711","0.020890000000001407"
"324","0.009749999999996817","0.012810000000001764"
"325","0.0012433333333348173","0.005759999999999839"
"326","0.005630000000010682","0.01602999999999888"
"327","0.005133333333333212","0.018896666666667745"
"328","0.0066849999999973875","0.03750750000000069"
"329","0.023315000000000086","0.041550000000000864"
"330","0.0","0.0"
"331","0.0","0.0"
"332","0.023760000000024206","0.0010199999999986886"
"333","0.004340000000003859","0.0153866666666674"
"334","0.021518000000000904","0.01916600000000006"
"335","0.00954315789473672","0.010515263157894557"
"336","0.006573999999999991","0.004818000000000211"
"337","0.012288750000000181","0.01056093750000009"
"338","0.008099333333334614","0.0048266666666665495"
"339","0.004504285714284707","0.0072433333333335225"
"340","0.00595899999999947","0.010110500000000222"
"341","0.008845599999999792","0.010507999999999953"
"342","0.01583588235294145","0.01246764705882373"
"343","0.005957037037036785","0.007166296296296385"
"344","0.011927037037037095","0.013212222222222444"
"345","0.006679333333333659","0.021168666666666287"
"346","0.016764000000000105","0.011067333333333214"
"347","0.009776428571430225","0.008797857142857524"
"348","0.009055000000001812","0.007119999999999349"
"349","0.003859999999997399","0.010532000000000607"
"350","0.018929999999998465","0.006267142857143122"
"351","0.011537142857142564","0.005455714285715071"
"352","0.006710833333333592","0.00903916666666671"
"353","0.008365000000003064","0.006925833333333002"
"354","0.00572750000000255","0.008482500000000096"
"355","0.0054293333333333745","0.010386666666666619"
"356","0.008634444444444809","0.010751111111111081"
"357","0.008395000000000152","0.013536000000000038"
"358","0.009634999999999394","0.024626666666666353"
"359","0.008172222222221926","0.01596111111111161"
"360","0.01422666666666809","0.022621333333333264"
"361","0.017000000000003013","0.017941666666666006"
"362","0.14265000000000044","0.13009999999999983"
"363","0.03620999999999697","0.016296666666667292"
"364","0.03941928571428629","0.02402428571428507"
"365","0.011312499999995396","0.012287500000000229"
"366","0.005345999999994433","0.014526000000000394"
"367","0.01921000000001527","0.013189999999999813"
"368","0.01477999999998758","0.01120000000000232"
"369","0.01901000000000863","0.00783999999999807"
"370","0.0","0.0"
"371","0.0056100000000012884","0.007631428571428829"
"372","0.0","0.0"
"373","0.0","0.0"
"374","0.01910799999999426","0.021337999999999368"
"375","0.05210999999999899","0.031980000000000786"
"376","0.03123000000000005","0.039624999999998245"
"377","0.0","0.0"
"378","0.005520000000004188","0.015629999999998034"
"379","0.055489999999991824","0.005249999999996646"
"380","0.013511999999999347","0.01162299999999945"
"381","0.009947500000000822","0.014029285714285664"
"382","0.005153157894737435","0.003661578947368919"
"383","0.019069130434784445","0.013648695652173583"
"384","0.011599565217391163","0.006559130434782907"
"385","0.008291500000000163","0.005307499999999976"
"386","0.008746296296295978","0.01076481481481453"
"387","0.0070488235294111565","0.01203823529411728"
"388","0.012935909090909642","0.00973681818181784"
"389","0.004277678571427135","0.00608214285714321"
"390","0.004414500000001276","0.011303000000000197"
"391","0.0061535714285709175","0.0088592857142858"
"392","0.017579500000000615","0.009469999999999779"
"393","0.012751111111110368","0.0068149999999994725"
"394","0.005892499999998968","0.006677499999999448"
"395","0.008465000000001055","0.0045766666666666"
"396","0.07268666666666472","0.004973333333333348"
"397","0.0031719999999978653","0.010205999999999448"
"398","0.006377142857145047","0.006787142857142214"
"399","0.005264999999997855","0.003769999999999385"
"400","0.015820000000005052","0.004949999999997345"
"401","0.004824999999999117","0.012058333333332763"
"402","0.008667142857142604","0.008275000000000254"
"403","0.0032560000000013173","0.006974666666665996"
"404","0.009947500000001774","0.010821250000000227"
"405","0.006514285714288803","0.01131571428571527"
"406","0.009948749999998618","0.01052624999999896"
"407","0.0024799999999949307","0.004965000000002107"
"408","0.049854285714285344","0.04242428571428495"
"409","0.008752499999996388","0.014699999999999491"
"410","0.030496666666669132","0.0152533333333326"
"411","0.0143288888888896","0.016867777777777704"
"412","0.0","0.0"
"413","0.027698666666665872","0.022873999999999485"
"414","0.013352000000007535","0.022232999999999236"
"415","0.004283333333333417","0.021033333333331683"
"416","0.0","0.0"
"417","0.0","0.0"
"418","0.03398250000000136","0.01623687500000004"
"419","0.025060000000006966","0.03273499999999929"
"420","0.035169999999993706","0.008050000000004331"
"421","0.008135999999996101","0.011458000000000367"
"422","0.005834999999997592","0.0034900000000011033"
"423","0.05122333333333332","0.013900000000000764"
"424","0.002986666666666693","0.008256666666667911"
"425","0.02901714285714282","0.021945714285714044"
"426","0.00792350000000006","0.006511000000000422"
"427","0.01054562499999967","0.012317500000000203"
"428","0.011436666666666317","0.007329166666667349"
"429","0.010541875000000367","0.004776875000000125"
"430","0.011164117647059471","0.007664705882353469"
"431","0.017865102040816497","0.007960408163265488"
"432","0.013523333333333554","0.015842222222221695"
"433","0.017217142857141456","0.012009999999999568"
"434","0.015307142857142455","0.005630000000000278"
"435","0.006683999999999734","0.015618500000000068"
"436","0.010829655172414574","0.018048620689654994"
"437","0.005101666666663994","0.007209444444444084"
"438","0.0056658333333328885","0.010440000000000449"
"439","0.013595714285715235","0.011999285714284673"
"440","0.010976666666665302","0.007673749999999924"
"441","0.01963826086956412","0.014657826086955834"
"442","0.007327058823529555","0.012361176470588809"
"443","0.004477999999997451","0.022868000000000423"
"444","0.008515833333330983","0.008998333333333738"
"445","0.014214444444444752","0.009992777777778232"
"446","0.02823571428571268","0.007528571428571139"
"447","0.01320166666666959","0.01680166666666712"
"448","0.009350000000001302","0.012136999999999887"
"449","0.010964000000001306","0.004270000000001062"
"450","0.009545000000004578","0.011034999999998796"
"451","0.0040419999999997454","0.0072359999999982"
"452","0.010423333333333082","0.013355555555554824"
"453","0.073753333333336","0.10541333333333114"
"454","0.004846428571426539","0.003753571428570928"
"455","0.003678181818178866","0.005736363636364478"
"456","0.012544999999993442","0.023801666666666794"
"457","0.0026766666666731","0.012726666666665665"
"458","0.020096000000000912","0.01532599999999995"
"459","0.14983925925925867","0.7256881481481483"
"460","0.009919999999997486","0.0051299999999976365"
"461","0.01407249999999749","0.01972250000000031"
"462","0.0","0.0"
"463","0.016869999999997276","0.007749999999999702"
"464","0.01241666666665727","0.009999999999999195"
"465","0.0","0.0"
"466","0.0058299999999889","0.005940000000002499"
"467","0.01734999999999805","0.030583333333334888"
"468","0.009729999999995206","0.011716666666664821"
"469","0.017229999999993122","0.0275266666666667"
"470","0.014132499999999997","0.0028383333333333502"
"471","0.019834285714289152","0.014322857142856447"
"472","0.022018461538460262","0.021273846153846695"
"473","0.017200000000003435","0.013032499999999558"
"474","0.01618999999999941","0.00929666666666614"
"475","0.017265294117647448","0.013027647058823533"
"476","0.025610000000000355","5.500000000004945E-4"
"477","0.02737645161290249","0.018827741935483703"
"478","0.010984545454546886","0.00991454545454557"
"479","0.014425000000000798","0.014676250000000168"
"480","0.007916000000001115","0.006135333333332819"
"481","0.00839958333333494","0.010072500000000298"
"482","0.008765806451612599","0.01199516129032322"
"483","0.005298000000001935","0.012039999999999652"
"484","0.004040526315789836","0.005222631578947481"
"485","0.006939999999999576","0.01019999999999932"
"486","0.005281666666668627","0.007513333333333705"
"487","0.008230000000002255","0.009106666666668891"
"488","0.015179999999999527","0.007411249999999869"
"489","0.015272352941176551","0.008660588235294142"
"490","0.0037971428571442595","0.005845714285714771"
"491","0.010806666666663745","0.008121666666666508"
"492","0.007901250000000637","0.005582500000000046"
"493","0.0","0.0"
"494","0.0050699999999981316","0.0116474999999987"
"495","0.0053399999999982125","0.006137999999999977"
"496","0.007549999999998391","0.009236666666668114"
"497","0.005733333333331814","0.016089999999999566"
"498","0.01075999999999766","0.009656666666667016"
"499","0.018297500000000966","0.020670000000001743"
"500","0.006160000000008381","0.02237000000000222"
"501","0.010557499999997333","0.01678999999999853"
"502","0.006922500000001719","0.012263749999999796"
"503","0.0077339999999992415","0.016655999999998984"
"504","0.02814700000000272","0.00989299999999993"
"505","0.028854666666667108","0.028763333333333918"
"506","0.006184000000001788","0.012068999999999618"
"507","0.0035381818181822277","0.009125454545454981"
"508","6.750000000081968E-4","0.006800000000000139"
"509","0.009000000000014552","0.004259999999998598"
"510","8.599999999745478E-4","0.004680000000000462"
"511","0.005659999999998888","0.021154999999999664"
"512","0.0","0.0"
"513","0.0181699999999978","0.06968000000000174"
"514","0.013565000000006933","0.007619999999999294"
"515","0.040522857142854765","0.03833428571428651"
"516","0.02897000000000105","0.022059999999999746"
"517","0.034379999999999994","0.0278299999999998"
"518","0.014370714285712951","0.016873571428572376"
"519","0.013406666666666714","0.0056350000000010185"
"520","0.5718689473684208","0.06948736842105269"
"521","0.023975999999998738","0.016660666666666893"
"522","0.02221857142857177","0.011705714285714717"
"523","0.20918999999999993","0.07483763157894795"
"524","0.09379923076922952","0.02947115384615369"
"525","0.008420799999999744","0.006953199999999953"
"526","0.006715384615384816","0.006208461538460433"
"527","0.011713478260867893","0.010303913043477586"
"528","0.018086799999998817","0.01737359999999967"
"529","0.007454838709678382","0.006158387096773582"
"530","0.008852500000000596","0.0060125000000015305"
"531","0.006549999999999143","0.009634444444444648"
"532","0.25790166666666686","0.08698416666666613"
"533","0.00348499999999774","0.005252500000000104"
"534","0.007046250000002807","0.012648749999998987"
"535","0.006188888888887491","0.005632222222221767"
"536","0.004455000000001282","0.006899999999999314"
"537","0.005241333333333387","0.005322666666667194"
"538","0.007801428571427087","0.00710500000000052"
"539","0.010346666666668133","0.011150000000001844"
"540","0.0038671428571400873","0.01164142857142839"
"541","0.00442199999999957","0.006963000000000363"
"542","0.008381999999997447","0.006954000000001059"
"543","0.0023659999999992463","0.0067840000000003895"
"544","0.0045224999999984306","0.009860000000001534"
"545","0.010219000000000023","0.00853900000000074"
"546","0.010762857142856725","0.01753928571428506"
"547","0.007780714285714347","0.007993571428571553"
"548","0.013776363636364235","0.01037000000000026"
"549","0.008344285714282964","0.005538571428571361"
"550","0.02660399999999754","0.03523800000000108"
"551","0.016556296296296107","0.013137777777778185"
"552","0.0173242857142932","0.016565714285714454"
"553","0.012120000000004438","0.016851000000000126"
"554","0.0035799999999994725","0.00963000000000136"
"555","0.005400000000005889","0.004184000000000765"
"556","0.025277777777776893","0.019076666666666853"
"557","0.004429999999999268","0.004069999999998686"
"558","0.005273333333339754","0.011596666666666996"
"559","0.006258571428570495","0.019748571428571893"
"560","0.025993333333334572","0.01816666666666637"
"561","0.018611666666667286","0.029255000000001512"
"562","0.0366439999999983","0.04863199999999921"
"563","0.007590000000007535","0.011593333333330236"
"564","0.03850999999999999","0.0028100000000002012"
"565","0.00955499999999887","0.012129999999999086"
"566","0.013153125000000654","0.007498124999999467"
"567","0.016318235294117578","-0.007521176470587718"
"568","0.012856000000001977","-0.008484000000000335"
"569","0.018330740740741074","-0.0014088888888891054"
"570","0.018386923076921136","0.0033961538461538565"
"571","0.02162681818181705","6.454545454536872E-4"
"572","0.010236249999999836","-0.0024043750000004582"
"573","0.5136614285714293","0.2625628571428566"
"574","0.014749999999999966","-7.061111111108273E-4"
"575","0.013637692307692344","0.0019943589743588994"
"576","0.011795365853658507","-6.98780487804506E-4"
"577","0.009440526315789032","-0.0035742105263162293"
"578","0.008157857142857898","-0.008867142857142898"
"579","0.0119512500000023","5.887499999994716E-4"
"580","0.004993333333332985","0.019551111111112678"
"581","0.012685000000000153","-2.778571428575357E-4"
"582","0.006805999999998846","7.720000000006166E-4"
"583","0.003955000000001263","0.003655000000000186"
"584","0.005890000000004392","0.003580000000001249"
"585","0.007599999999999341","0.009353999999999729"
"586","0.005752222222222751","0.004083333333333488"
"587","0.06796000000000173","-0.024846666666666312"
"588","0.0034927272727281115","-0.00515636363636415"
"589","0.005761428571430217","-0.0047357142857136535"
"590","0.024299999999996658","0.014209999999998502"
"591","0.009055555555553794","0.005364444444445048"
"592","0.010542000000000228","3.020000000002909E-4"
"593","0.008847333333333296","0.0011963333333333992"
"594","0.19837548387096768","0.005197741935483413"
"595","0.006695999999999458","0.009318000000001093"
"596","0.020363333333333837","-0.0029539999999999606"
"597","0.005628749999994298","0.009753750000000228"
"598","0.009940000000000282","0.0022599999999997067"
"599","0.0054899999999994025","0.008545555555554548"
"600","0.0046766666666589645","0.005253333333331038"
"601","0.001264999999996519","0.010260000000000602"
"602","0.004944999999999311","0.0064599999999988"
"603","0.0","0.0"
"604","0.010945000000006644","-0.012045000000000528"
"605","0.009320000000002437","-0.0029000000000003467"
"606","0.007000000000005002","0.013692499999998553"
"607","0.0","0.0"
"608","0.024669999999986203","0.033559999999997814"
"609","0.029900000000004923","0.03867999999999938"
"610","0.002876666666660791","-1.2999999999744696E-4"
"611","0.014141333333333735","-0.009758666666667182"
"612","0.0071224999999977","-0.010277500000000828"
"613","0.025755999999998735","-0.030134000000000327"
"614","0.023783636363633353","-0.03146909090909166"
"615","0.02830545454545427","-0.014802727272727235"
"616","0.021065000000000406","-0.01136499999999844"
"617","0.016090000000012594","-0.021755000000000635"
"618","0.013351818181816875","-0.010888181818182054"
"619","0.017455454545451297","-0.013035454545454557"
"620","0.009807692307694592","-0.006526923076922759"
"621","0.013590000000000449","-0.007994705882353723"
"622","0.014134166666666855","-0.022073333333333167"
"623","0.016014444444444307","-0.007616111111111539"
"624","0.01371321428571307","-0.016114642857143098"
"625","0.01187250000000232","-0.012157500000000118"
"626","0.004494000000001819","-0.008395999999999048"
"627","0.010095000000000928","-0.013456666666668227"
"628","0.01672615384615411","-0.013296923076922531"
"629","0.009191428571427756","-0.014504285714285256"
"630","0.0036599999999999966","-0.0065099999999986835"
"631","0.008089999999995712","-0.024530000000000385"
"632","0.005195000000000505","-0.007094999999999629"
"633","0.0054066666666656715","-0.01679666666666672"
"634","0.011489999999999334","-0.010326250000000758"
"635","0.025160000000001206","-0.01718111111111161"
"636","0.0024283333333319965","-0.011746666666667238"
"637","0.005605000000002747","-0.01326750000000132"
"638","0.008195000000001803","-0.007401666666666529"
"639","0.0","0.0"
"640","0.004698666666666895","-0.0065766666666661425"
"641","0.16137846153846333","-0.5898138461538457"
"642","0.004780666666666396","-0.0035933333333332484"
"643","0.007746818181815743","-0.009635909090909096"
"644","0.004830000000008994","-0.004207500000001474"
"645","0.004033749999999614","-0.00358624999999968"
"646","0.010096666666655096","-0.009253333333332373"
"647","0.0","0.0"
"648","0.0","0.0"
"649","0.0030000000000001137","-0.001809999999998979"
"650","0.017780000000001905","-0.019569999999999865"
"651","0.0","0.0"
"652","0.0","0.0"
"653","0.0","0.0"
"654","0.027975000000004968","-0.031159999999999854"
"655","0.007709999999988781","-0.01595000000000013"
"656","0.019520000000014193","-0.009719999999997953"
"657","0.01091249999999988","-0.008760000000000545"
"658","0.00964727272727301","-0.009376363636362002"
"659","0.020014999999999006","-0.016482500000000844"
"660","0.01048857142857429","-0.011807142857142492"
"661","0.02300952380952343","-0.021250952380952474"
"662","0.01609466666666736","-0.021848666666666596"
"663","0.007563333333333588","-0.017013333333333474"
"664","0.018306666666666988","-0.02319666666666779"
"665","0.01498249999999753","-0.01731416666666726"
"666","0.031165833333331932","-0.011619999999999445"
"667","0.013389583333333732","-0.009475833333333425"
"668","0.010300645161289557","-0.013521935483871336"
"669","0.011788620689655053","-0.014127931034482774"
"670","0.01187444444444314","-0.012896666666665545"
"671","0.014493571428574168","-0.016270714285714454"
"672","0.020571874999998352","-0.014240000000000475"
"673","0.01187666666666587","-0.0034450000000007344"
"674","0.00733166666666681","-0.008059999999999809"
"675","0.012278461538460742","-0.020883846153846156"
"676","0.006270833333333077","-0.013754999999998851"
"677","0.0","0.0"
"678","0.0058739999999986026","-0.005464000000000624"
"679","0.0","0.0"
"680","0.005070000000003461","-5.099999999984561E-4"
"681","0.024364999999999526","-0.005904999999998495"
"682","0.0","0.0"
"683","0.023542000000001905","-0.015792000000000427"
"684","0.01275500000000207","-0.005457500000000337"
"685","0.001660000000001105","-0.022109999999997854"
"686","0.006981666666670587","-0.007236666666666854"
"687","0.006969333333334759","-0.00580799999999968"
"688","0.005746666666667011","-0.00540166666666823"
"689","0.35250416666666734","-0.19913055555555578"
"690","0.32283199999999823","-0.1174979999999998"
"691","0.004870000000000374","-0.00909999999999922"
"692","0.011013750000000044","-0.005288750000000952"
"693","0.013183333333330438","-0.006386666666666467"
"694","0.01706000000000074","-0.013515000000000832"
"695","0.0031000000000034333","-0.007210000000000605"
"696","0.006520000000001858","-0.002110000000003609"
"697","0.0","0.0"
"698","0.01338000000001216","-0.030059999999998865"
"699","0.0","0.0"
"700","0.0","0.0"
"701","0.0","0.0"
"702","0.007775000000002308","-0.02395999999999887"
"703","0.0","0.0"
"704","0.0","0.0"
"705","0.01476499999999703","-0.018799999999998818"
"706","0.0063600000000008095","-0.005495000000001582"
"707","0.008231818181818618","-0.018341818181818195"
"708","0.010333999999996912","-0.00819399999999817"
"709","0.01520399999999995","-0.015670666666666833"
"710","0.011222500000000402","-0.009053000000000111"
"711","0.016916363636364003","-0.016358181818181352"
"712","0.014580799999999528","-0.011101599999999365"
"713","0.026059473684209664","-0.02150210526315763"
"714","0.04929200000000146","-0.022842666666667573"
"715","0.0","0.0"
"716","0.025584545454546127","-0.01886545454545476"
"717","0.02007999999999873","-0.010083846153845909"
"718","0.008781851851854268","-0.008449629629629621"
"719","0.010820909090910259","-0.011675909090908735"
"720","0.011770416666666783","-0.017508749999999445"
"721","0.00904599999999931","-0.012040000000000361"
"722","0.016836000000002117","-0.006965999999998473"
"723","0.008110833333332698","-0.012082500000000884"
"724","0.0016500000000014836","-0.006514999999998494"
"725","0.004991250000001557","-0.011515000000001496"
"726","0.010783750000000758","-0.013228750000000566"
"727","0.006287000000001086","-0.007603000000000648"
"728","0.01638499999999965","-0.014090000000003045"
"729","0.008960000000001855","-0.008062499999999417"
"730","0.004939999999997724","-0.004692000000000718"
"731","0.004993157894737976","-0.004948421052631602"
"732","0.0066888888888859315","-0.006073333333333153"
"733","0.01149000000000111","-0.012491250000000065"
"734","0.006771538461535442","-0.009850769230769885"
"735","0.008893333333333765","-0.013033333333332169"
"736","0.011724999999998431","-0.013111666666668853"
"737","0.004963749999999045","-0.004944375000000001"
"738","0.013580000000004588","-0.007111666666668626"
"739","0.01104714285714538","-0.013535714285712938"
"740","0.036111666666675056","-0.02481499999999966"
"741","0.0","0.0"
"742","0.005142499999994499","-0.010307499999999692"
"743","0.0","0.0"
"744","0.010030000000014638","-0.05262999999999707"
"745","0.00261000000000422","-3.600000000005821E-4"
"746","0.0","0.0"
"747","0.0041700000000020054","-0.019659999999998234"
"748","0.0030600000000049477","-0.016269999999998674"
"749","0.0","0.0"
"750","0.0","0.0"
"751","0.006203999999996768","-0.029848000000001207"
"752","0.27704317073170825","-0.3488424390243898"
"753","0.010710000000003106","-0.00485666666666873"
"754","0.008663333333333393","-0.00881166666666644"
"755","0.009637575757575565","-0.008683333333333175"
"756","0.013983536585365596","-0.012587682926829224"
"757","0.014445106382979361","-0.010782127659574314"
"758","0.005132727272727389","-0.005824727272726965"
"759","0.01076999999999946","-0.010253207547169565"
"760","0.02110085106383145","-0.02356638297872395"
"761","0.01964416666666639","-0.019738333333332154"
"762","0.007154999999999134","-0.006550000000002498"
"763","0.029628333333330776","-0.02002999999999962"
"764","0.010052500000000464","-0.009142499999999387"
"765","0.010668333333334465","-0.00946666666666592"
"766","0.04800257142857142","-0.2316728571428583"
"767","0.011448181818182331","-0.007759090909090105"
"768","0.014885000000000185","-0.015414999999998477"
"769","0.01752749999999696","-0.02065999999999975"
"770","0.00852545454545735","-0.013486363636364988"
"771","0.0","0.0"
"772","0.004442500000000867","-0.005451666666667521"
"773","0.003868124999999889","-0.004772499999998736"
"774","0.0049019999999998735","-0.009571999999998582"
"775","0.006671538461539228","-0.008300769230769535"
"776","0.008317272727272755","-0.009644545454543357"
"777","0.005619999999995666","-0.007410000000000139"
"778","0.010085454545453197","-0.006320000000000386"
"779","0.005502307692308998","-0.011140000000000217"
"780","0.003826666666666275","-0.005666666666668263"
"781","0.008670000000000991","-0.008366666666669076"
"782","0.00820714285714327","-0.008459047619047292"
"783","0.010409999999999238","-0.014690000000001646"
"784","0.008808823529412865","-0.005271176470588468"
"785","0.016903076923079234","-0.011056153846153686"
"786","0.011107391304349172","-0.01198173913043593"
"787","0.10024800000000197","-0.011719999999999686"
"788","0.011008888888884232","-0.02133000000000291"
"789","0.0","0.0"
"790","0.01702000000000936","-0.022504999999995334"
"791","0.0","0.0"
"792","0.0018499999999903594","-0.02317499999999484"
"793","0.005406249999996504","-0.013813750000000624"
"794","0.006915000000006444","-0.007135000000001668"
"795","0.00782999999999845","-0.0035799999999994725"
"796","0.00489000000000317","-0.0025149999999989348"
"797","0.004439999999997705","-0.002156666666664364"
"798","0.003981818181817299","-0.02433363636363498"
"799","0.010638571428571593","-0.0122414285714275"
"800","0.0","0.0"
"801","0.0","0.0"
"802","0.01118142857142876","-0.00800857142857073"
"803","0.02277694444444535","-0.1497477777777785"
"804","0.0118836842105265","-0.0183342105263156"
"805","0.014937272727273894","-0.013158636363636395"
"806","0.013012500000000227","-0.013589999999999236"
"807","0.0","0.0"
"808","0.8686199999999994","-0.14359833333333327"
"809","0.009474444444444587","-0.013061111111112054"
"810","0.026383809523806975","-0.020696666666667612"
"811","0.012172777777776823","-0.011546666666666915"
"812","0.0030833333333368054","-0.0025050000000016817"
"813","0.008064285714285952","-0.009307142857143244"
"814","0.009449999999998404","-0.00845750000000045"
"815","0.011734444444445873","-0.022061111111111604"
"816","0.015051818181818404","-0.01921272727272726"
"817","0.011529999999997901","-0.02235818181818029"
"818","0.006808148148148571","-0.009393703703703746"
"819","0.0021122222222231812","-0.012167777777778591"
"820","0.016534999999997524","-0.021036666666669628"
"821","0.01775666666667064","-0.010539999999998884"
"822","0.00820749999999748","-0.006494999999997475"
"823","0.0032109999999974546","-0.004603000000000889"
"824","0.0013322222222227095","-0.003730000000001294"
"825","0.0034520000000057395","-0.005309999999998638"
"826","0.0025100000000009004","-0.008130000000008408"
"827","0.007273333333330356","-0.014826666666666691"
"828","0.010694000000003711","-0.011062000000001149"
"829","0.008247999999994704","-0.010011999999996135"
"830","0.007354285714286439","-0.005555714285712554"
"831","0.010034999999997277","-0.015360000000003518"
"832","0.01989599999999996","-0.017287999999999214"
"833","0.012531176470587598","-0.013329411764705328"
"834","0.030783999999997036","-0.017422000000000538"
"835","0.01702142857143128","-0.019519999999999982"
"836","0.016466153846151927","-0.012386153846153346"
"837","0.011053333333326995","-0.01605333333332955"
"838","0.02026249999999763","-0.02558249999999962"
"839","0.013839999999999483","-0.022446666666670723"
"840","0.023759999999995784","-0.0032000000000032003"
"841","0.016799999999989268","-0.01717000000000013"
"842","0.0","0.0"
"843","0.0","0.0"
"844","0.0","0.0"
"845","0.004495000000005689","-0.016559999999998354"
"846","0.019053999999997306","-0.017944000000001382"
"847","0.0","0.0"
"848","0.0","0.0"
"849","0.019720000000000404","-0.004810000000006198"
"850","0.010884000000002026","-0.006004000000001497"
"851","0.009918333333332264","-0.007883888888887865"
"852","0.017772727272725417","-0.03242090909090772"
"853","0.012681428571429874","-0.013591428571426636"
"854","0.00747000000000142","-0.009259999999997603"
"855","0.0","0.0"
"856","0.00883499999999593","-0.013765000000006467"
"857","0.02442999999999671","-0.01461999999999648"
"858","0.009392999999999674","-0.004971999999998644"
"859","0.0017600000000186355","-0.011639999999999873"
"860","0.010093333333325441","-0.004876666666672709"
"861","0.006558333333333148","-0.011216666666667171"
"862","0.009985000000003907","-0.004089999999997929"
"863","0.010916111111112533","-0.015164444444445499"
"864","0.018475833333332876","-0.012675000000000955"
"865","0.008972857142860034","-0.00706571428571274"
"866","0.009182000000001267","-0.012157999999998026"
"867","0.0022499999999965326","-0.002830000000002997"
"868","0.004954000000000747","-0.004743999999998039"
"869","0.011139999999997485","-4.3000000000148475E-4"
"870","0.0","0.0"
"871","0.006086666666670719","-0.008106666666660564"
"872","0.010896666666665075","-0.011963333333333992"
"873","0.0","0.0"
"874","0.0","0.0"
"875","0.002454999999994101","-0.0258049999999983"
"876","0.009931428571428163","-0.008054285714285316"
"877","0.017499999999994742","-0.0059499999999985675"
"878","0.006792999999996141","-0.013463000000000846"
"879","0.0038211111111113244","-0.004895555555556541"
"880","0.012122857142857007","-0.022007857142858103"
"881","0.007785000000000745","-0.012951666666666029"
"882","0.006322000000002959","-0.008638000000000545"
"883","0.0230840000000029","-0.02248400000000004"
"884","0.00743874999999683","-0.007121249999999968"
"885","0.017215000000000202","-0.021364999999999412"
"886","0.002359999999995921","-0.012140000000005813"
"887","0.0","0.0"
"888","0.0","0.0"
"889","0.013139999999992824","-0.002499999999990621"
"890","0.0","0.0"
"891","0.0","0.0"
"892","0.012270000000000891","-0.030909999999991555"
"893","0.004364999999992847","-0.014834999999997933"
"894","0.018432499999998297","-0.03263000000000282"
"895","0.004142857142854593","-0.006749999999998734"
"896","0.00497800000000268","-0.003900000000001569"
"897","0.045130000000000337","-0.014980000000001326"
"898","0.013570000000000427","-0.013590000000000657"
"899","0.013684999999998245","-0.012183333333331584"
"900","0.014230555555554957","-0.010851111111112033"
"901","0.009183333333335023","-0.017346666666666028"
"902","0.0","0.0"
"903","0.008323333333333238","-0.014768333333332606"
"904","0.0048762500000005815","-0.020077500000000192"
"905","0.011846666666670558","-0.004326666666666294"
"906","0.0","0.0"
"907","0.010182499999999095","-0.005922499999996944"
"908","0.00464636363636311","-0.00902181818181576"
"909","0.007740000000005409","-0.003569999999989193"
"910","0.003619999999997958","-1.1000000000649379E-4"
"911","0.006511666666667064","-0.01027666666666723"
"912","0.006051874999999374","-0.010221874999999603"
"913","0.008863333333334507","-0.012198888888888525"
"914","0.004373749999999177","-0.006973750000000223"
"915","0.0","0.0"
"916","0.0030649999999994293","-0.00886499999999657"
"917","0.005012000000002103","-0.0020539999999996893"
"918","0.0","0.0"
"919","0.0034199999999998455","-0.012742000000000076"
"920","0.011959999999994864","-0.003520000000001744"
"921","0.006924999999995407","-0.0074600000000017985"
"922","0.005079999999999529","-0.011252499999999444"
"923","0.0162771428571438","-0.013970000000000482"
"924","0.007474999999999454","-0.0063500000000082935"
"925","0.0070709999999976954","-0.006027999999999878"
"926","0.011322682926828935","-0.00686170731707275"
"927","0.016137999999997987","-0.013128000000001805"
"928","0.0050999999999952195","-0.009957499999998731"
"929","0.006075000000002717","-0.0028849999999955855"
"930","0.007218333333334215","-0.00910166666666612"
"931","0.01686000000000263","-0.009802000000000533"
"932","0.0038899999999983947","-0.010529999999999262"
"933","0.0","0.0"
"934","0.0","0.0"
"935","0.004880000000007101","-0.007967499999997685"
"936","0.0","0.0"
"937","0.006686666666666952","-0.010469999999997981"
"938","0.0061533333333395985","-0.009063333333327725"
"939","0.004780000000010887","-0.008455000000001434"
"940","0.0","0.0"
"941","0.0063993333333344","-0.012617333333333628"
"942","0.013690000000000068","-0.016033999999999084"
"943","0.0","0.0"
"944","0.01698999999999984","-0.015039999999999054"
"945","0.01308000000000015","-0.018494615384615106"
"946","0.014197999999999666","-0.013746000000001857"
"947","0.009551666666665662","-0.016083333333333154"
"948","0.010848750000000518","-0.014766874999999846"
"949","0.010984545454544949","-0.010979090909090933"
"950","0.010148888888890342","-0.021137777777776517"
"951","0.014497999999999678","-0.018309999999998182"
"952","0.01241285714285618","-0.013347142857142558"
"953","0.007869999999999776","-0.015266000000001157"
"954","0.0","0.0"
"955","0.0058971428571429185","-0.006135714285712928"
"956","0.008574999999999852","-0.008272777777777426"
"957","0.005878235294117677","-0.01612647058823522"
"958","0.006512500000001253","-0.01757999999999882"
"959","0.005953333333334143","-0.00394166666666725"
"960","0.0061488235294107465","-0.010208823529412528"
"961","0.019469999999998322","-0.011260000000000048"
"962","0.012473333333333633","-0.0058699999999968595"
"963","0.003675000000001205","-0.003758333333333752"
"964","0.004426000000000841","-0.008524000000001308"
"965","0.01991999999999905","-0.015914999999996127"
"966","0.0","0.0"
"967","0.0","0.0"
"968","0.006090000000000373","-0.018449999999999633"
"969","0.016235000000001776","-0.013450000000002404"
"970","0.0","0.0"
"971","0.02000428571428411","-0.01713714285714271"
"972","0.004440869565216711","-0.008106956521738989"
"973","0.004115624999997181","-0.005795625000000637"
"974","0.013846666666670634","-0.015006666666664614"
"975","0.014697500000004027","-0.012527500000000913"
"976","0.0","0.0"
"977","0.0","0.0"
"978","0.0952149999999996","-0.03492999999999746"
"979","0.007964999999998668","-0.010254999999999015"
"980","0.0","0.0"
"981","0.0014050000000054297","-0.012419999999995213"
"982","0.0","0.0"
"983","0.0032949999999942747","-0.009580000000003253"
"984","0.0050600000000002865","-0.01833333333333324"
"985","2.800000000036107E-4","-0.00943499999999986"
"986","7.500000000035811E-4","-0.012249999999998096"
"987","0.0","0.0"
"988","0.005941578947368044","-0.005639999999999833"
"989","0.004526666666666568","-0.01238333333333467"
"990","0.023379999999999512","-0.015569999999996753"
"991","0.01640666666666668","-0.011253333333331264"
"992","0.0","0.0"
"993","0.009544074074073358","-0.010794814814815104"
"994","0.014712727272726928","-0.007354545454545432"
"995","0.010778999999999428","-0.016994999999999295"
"996","0.0048222222222236155","-0.004963333333332148"
"997","0.005655000000000143","-0.013149000000000655"
"998","0.007421249999999491","-0.01589625000000039"
"999","0.0","0.0"
"1000","0.004092500000002275","-0.02265249999999952"
"1001","0.008859999999998536","-0.020023333333332023"
"1002","0.004759999999997433","-0.010819999999997757"
"1003","0.011486666666668791","-0.0055683333333351"
"1004","0.005776666666664691","-0.002881111111110594"
"1005","0.004983333333335338","-0.004128333333333956"
"1006","0.0013000000000076284","-0.007110000000004391"
"1007","0.004050000000006548","-0.006250000000001421"
"1008","0.0","0.0"
"1009","0.0","0.0"
"1010","0.013919999999998822","-0.012729999999997688"
"1011","0.0","0.0"
"1012","0.010675000000002655","-0.01695000000000846"
"1013","0.00517000000000678","-0.004120000000000346"
"1014","0.0","0.0"
"1015","0.010589999999993438","-0.0035399999999938814"
"1016","0.005973333333329833","-0.0038833333333367173"
"1017","0.0010800000000017462","-0.029279999999992867"
"1018","0.004009999999986746","-0.015320000000002665"
"1019","0.014786000000000854","-0.011145999999999389"
"1020","0.006766666666663923","-0.012653333333335107"
"1021","0.004315555555556393","-0.012954444444445478"
"1022","0.01401666666666617","-0.014427777777777508"
"1023","0.010310000000004038","-0.022637500000001864"
"1024","0.010379999999997835","-0.021829999999994243"
"1025","0.04982999999998583","-0.03990000000000293"
"1026","0.005866666666669573","-0.02393500000000041"
"1027","0.008279999999999177","-0.011430000000000717"
"1028","0.009038000000003876","-0.012837999999999284"
"1029","0.0","0.0"
"1030","0.0035179999999968457","-0.012704000000000803"
"1031","0.004795000000001437","-0.015419999999998879"
"1032","0.011296666666671248","-0.014246666666664964"
"1033","0.0","0.0"
"1034","0.0","0.0"
"1035","0.007218333333334048","-0.015283333333333834"
"1036","0.018995999999999923","-0.0080600000000004"
"1037","0.025647500000000045","-0.01594500000000032"
"1038","0.030450000000000088","-0.07719999999999771"
"1039","0.042699999999998184","-0.2228200000000058"
"1040","0.014569999999999845","-0.029287142857144084"
"1041","0.009239999999991255","-0.02190000000000225"
"1042","0.0179700000000032","-0.011801111111113174"
"1043","0.020691999999996824","-0.012967999999999336"
"1044","0.010485000000000966","-0.004435000000004408"
"1045","0.004784545454544219","-0.009979999999998768"
"1046","0.0","0.0"
"1047","0.0","0.0"
"1048","0.0","0.0"
"1049","0.0","0.0"
"1050","0.010411111111110137","-0.010883333333330667"
"1051","0.0","0.0"
"1052","0.0","0.0"
"1053","0.0","0.0"
"1054","0.0","0.0"
"1055","0.0","0.0"
"1056","0.008690000000001419","-0.005029999999990764"
"1057","0.003900000000001569","-0.0037799999999990064"
"1058","0.002200000000001978","-0.0018350000000033617"
"1059","0.0","0.0"
"1060","0.0043566666666639735","-0.00838333333333452"
"1061","0.016620000000010293","-0.018540000000001555"
"1062","0.009690000000006194","-0.011639999999992767"
"1063","0.037400000000001654","-0.0037300000000008993"
"1064","0.011183333333330362","-0.009346666666668094"
"1065","0.005548333333337041","-0.00876166666666478"
"1066","0.00980249999999927","-0.00398500000000368"
"1067","0.014562857142850914","-0.014239999999999904"
"1068","0.011357272727273292","-0.00848681818181938"
"1069","0.005476999999998356","-0.00721350000000065"
"1070","0.012833636363640462","-0.010459090909089303"
"1071","0.006450000000000955","-0.007090000000002779"
"1072","0.015299999999996317","-0.025220000000011566"
"1073","0.023910000000000764","-0.07771000000000328"
"1074","0.009603636363637107","-0.018701818181818132"
"1075","0.006154999999996136","-0.01775999999999911"
"1076","0.006029999999981328","-0.004899999999999238"
"1077","0.0053933333333316584","-0.008541666666666595"
"1078","0.007379999999997722","-0.01848399999999799"
"1079","0.00572800000000484","-0.019052000000002067"
"1080","0.0","0.0"
"1081","0.0","0.0"
"1082","0.007670625000000014","-0.013973749999999896"
"1083","0.013354285714285779","-0.014367142857142514"
"1084","0.0","0.0"
"1085","0.0","0.0"
"1086","0.0","0.0"
"1087","0.0","0.0"
"1088","0.008316999999999552","-0.013648000000000594"
"1089","0.0","0.0"
"1090","0.0","0.0"
"1091","0.0","0.0"
"1092","0.009840000000000515","-0.009550000000000836"
"1093","0.01109000000000293","-0.01000999999999408"
"1094","0.025730000000002917","-0.0017899999999926308"
"1095","0.005129999999999413","-0.011510000000001241"
"1096","0.007555000000001755","-0.01287500000000108"
"1097","0.0","0.0"
"1098","0.008399999999998187","-0.01783999999999608"
"1099","0.00626500000000263","-0.004030000000003753"
"1100","0.02617000000000047","-0.0026599999999987745"
"1101","1.9999999999953388E-4","-0.016219999999997015"
"1102","0.0","0.0"
"1103","0.0","0.0"
"1104","0.0","0.0"
"1105","0.0","0.0"
"1106","0.0","0.0"
"1107","0.0","0.0"
"1108","0.0","0.0"
"1109","0.0","0.0"
"1110","0.008519999999997196","-0.002650000000009811"
"1111","0.007614000000000942","-0.011264000000002739"
"1112","0.0","0.0"
"1113","0.0011533333333251978","-0.0054233333333328915"
"1114","0.008645000000001346","-0.01155250000000052"
"1115","0.00814777777777683","-0.015325555555555247"
"1116","0.005589499999999958","-0.0103239999999996"
"1117","0.00360285714285575","-0.009551428571428338"
"1118","0.005467142857144479","-0.0031242857142846753"
"1119","0.005703749999999748","-0.008287083333333575"
"1120","0.009958333333332329","-0.01487000000000016"
"1121","0.02242199999999741","-0.005985999999992941"
"1122","0.03064956521739102","-0.021754347826086845"
"1123","0.006956744186046376","-0.005352558139534835"
"1124","0.004521836734693874","-0.005642653061225267"
"1125","0.005485714285713682","-0.011092857142855905"
"1126","0.004732702702702417","-0.009738108108108063"
"1127","0.0","0.0"
"1128","0.0","0.0"
"1129","0.0","0.0"
"1130","0.0","0.0"
"1131","0.0","0.0"
"1132","0.0","0.0"
"1133","0.0","0.0"
"1134","0.012595909090908141","-0.01369409090909134"
"1135","0.009945000000001869","-0.025710000000003674"
"1136","0.0","0.0"
"1137","0.0","0.0"
"1138","0.0","0.0"
"1139","0.0","0.0"
"1140","0.0","0.0"
"1141","0.0","0.0"
"1142","0.0","0.0"
"1143","0.0","0.0"
"1144","0.0","0.0"
"1145","0.0","0.0"
"1146","0.0","0.0"
"1147","0.0","0.0"
"1148","0.0","0.0"
"1149","0.004759999999997433","-0.015304999999997904"
"1150","0.0","0.0"
"1151","0.0","0.0"
"1152","0.0","0.0"
"1153","0.004759999999997433","-0.003860000000003083"
"1154","0.0","0.0"
"1155","0.0011899999999940292","-0.003860000000003083"
"1156","0.00914500000000018","-0.0016950000000015564"
"1157","9.299999999967667E-4","-0.001269999999998106"
"1158","0.0","0.0"
"1159","0.0","0.0"
"1160","0.0","0.0"
"1161","0.008539999999982228","-0.012090000000007706"
"1162","0.014650000000017371","-0.005439999999993006"
"1163","0.0","0.0"
"1164","0.0","0.0"
"1165","0.0","0.0"
"1166","0.005599999999986949","-0.0020499999999969987"
"1167","0.005586666666673068","-0.009740000000003116"
"1168","0.03783599999999865","-0.04665000000000106"
"1169","0.010045000000001636","-0.012312500000003723"
"1170","0.021433333333334303","-0.022519999999997726"
"1171","0.0035387499999988137","-0.002316000000000784"
"1172","0.002915945945944729","-0.0033694594594579725"
"1173","0.001962000000003172","-0.0025459999999995373"
"1174","0.0","0.0"
