"cell_id","acc_x","acc_y"
"0","0.0","0.0"
"1","-0.008060000000000067","0.00828249999999997"
"2","-0.011063939393939369","0.009663939393939384"
"3","-0.0061720833333332266","0.004933333333333345"
"4","-0.00819750000000008","0.008938750000000023"
"5","-0.005241818181818206","0.005935454545454572"
"6","0.0","0.0"
"7","0.0","0.0"
"8","0.0","0.0"
"9","0.0","0.0"
"10","0.0","0.0"
"11","0.0","0.0"
"12","0.0","0.0"
"13","0.0","0.0"
"14","0.0","0.0"
"15","0.0","0.0"
"16","0.0","0.0"
"17","0.0","0.0"
"18","0.0","0.0"
"19","0.0","0.0"
"20","0.0","0.0"
"21","0.0","0.0"
"22","0.0","0.0"
"23","0.0","0.0"
"24","0.0","0.0"
"25","0.0","0.0"
"26","0.0","0.0"
"27","0.0","0.0"
"28","0.0","0.0"
"29","0.0","0.0"
"30","0.0","0.0"
"31","0.0","0.0"
"32","0.0","0.0"
"33","0.0","0.0"
"34","0.0","0.0"
"35","0.0","0.0"
"36","0.0","0.0"
"37","0.0","0.0"
"38","0.0","0.0"
"39","0.0","0.0"
"40","0.0","0.0"
"41","0.0","0.0"
"42","0.0","0.0"
"43","0.0","0.0"
"44","0.0","0.0"
"45","0.0","0.0"
"46","0.0","0.0"
"47","0.0","0.0"
"48","-0.006275000000000154","0.005572222222222287"
"49","-0.0064346341463413755","0.004836585365853608"
"50","-0.007733333333333074","0.009807777777777983"
"51","-0.007762666666666481","0.008771333333333301"
"52","-0.006378888888888786","0.006856666666666634"
"53","-0.004309999999998482","0.004450000000000287"
"54","-0.015002222222222509","0.013593333333333272"
"55","-0.00882499999999986","0.008175000000000265"
"56","-0.007883333333333317","0.005926666666666709"
"57","-0.021135999999999912","0.023754000000000098"
"58","-0.01168666666666951","0.018919999999999604"
"59","-0.0068200000000011585","0.026485000000000314"
"60","-0.00899000000000072","0.016990000000000727"
"61","0.0","0.0"
"62","0.0","0.0"
"63","0.0","0.0"
"64","0.0","0.0"
"65","0.0","0.0"
"66","0.0","0.0"
"67","0.0","0.0"
"68","0.0","0.0"
"69","0.0","0.0"
"70","0.0","0.0"
"71","0.0","0.0"
"72","0.0","0.0"
"73","0.0","0.0"
"74","0.0","0.0"
"75","0.0","0.0"
"76","0.0","0.0"
"77","0.0","0.0"
"78","-0.011719999999982633","0.012639999999999763"
"79","0.0","0.0"
"80","0.0","0.0"
"81","-0.010630000000006135","0.005279999999999951"
"82","-4.8000000001025E-4","0.007290000000000241"
"83","-0.004609999999999559","0.008226666666666679"
"84","-0.003259999999997376","0.01617999999999986"
"85","-0.004473333333332145","0.007660000000000296"
"86","0.0","0.0"
"87","0.0","0.0"
"88","0.0","0.0"
"89","0.0","0.0"
"90","0.0","0.0"
"91","0.0","0.0"
"92","0.0","0.0"
"93","0.0","0.0"
"94","0.0","0.0"
"95","-0.00658000000000003","0.009065000000000045"
"96","0.0","0.0"
"97","0.0","0.0"
"98","-0.013249999999999318","0.019289999999999807"
"99","-0.0028833333333319424","0.008856666666667104"
"100","-0.005069999999999908","0.014764999999999917"
"101","-0.009375000000002132","0.006412500000000376"
"102","-0.0060933333333347646","0.006083333333333367"
"103","-0.018619999999998527","0.005175000000000152"
"104","-0.02889444444444362","0.02257111111111105"
"105","-0.036099166666667536","0.06323583333333316"
"106","-0.020711111111110014","0.015827222222222118"
"107","-0.00503499999999768","0.02223749999999991"
"108","-0.01569749999999903","0.023159999999999847"
"109","-0.018630000000000813","0.028959999999999875"
"110","-0.006520000000001858","0.01865500000000031"
"111","-0.006446666666668932","0.0039933333333334415"
"112","-0.013089999999995902","0.01803333333333364"
"113","-0.004433999999996274","0.006898000000000337"
"114","-0.0042274999999989404","0.004565000000000152"
"115","-0.00664000000000442","0.009499999999999176"
"116","-0.004435000000000855","0.005065000000000097"
"117","-0.010739999999991312","0.005520000000001524"
"118","-0.0031966666666605192","0.01120333333333375"
"119","-0.014859999999998763","0.0019299999999997652"
"120","-0.0012100000000074829","0.006840000000000401"
"121","0.0","0.0"
"122","-0.001949999999993679","0.007519999999999527"
"123","-0.0033099999999919305","0.0033100000000008123"
"124","-0.011040000000001271","6.799999999991257E-4"
"125","0.0","0.0"
"126","0.0","0.0"
"127","0.0","0.0"
"128","0.0","0.0"
"129","0.0","0.0"
"130","-0.0051829999999966955","0.006776500000000141"
"131","-0.00330888888889073","0.006274444444444348"
"132","0.0","0.0"
"133","-0.019220000000004234","0.005990000000000606"
"134","0.0","0.0"
"135","0.0","0.0"
"136","0.0","0.0"
"137","0.0","0.0"
"138","0.0","0.0"
"139","0.0","0.0"
"140","0.0","0.0"
"141","0.0","0.0"
"142","-0.004874999999999852","0.011495000000000255"
"143","0.0","0.0"
"144","0.0","0.0"
"145","-0.023740000000003647","0.00818999999999992"
"146","-0.01995500000000039","0.013149999999999551"
"147","-0.015000000000000568","0.006219999999999892"
"148","-0.0020849999999938973","0.03633500000000023"
"149","-0.027605000000001212","0.04819499999999999"
"150","-0.0242259999999978","0.016052666666666583"
"151","-0.02570199999999261","0.013158000000000314"
"152","-0.013249999999995765","0.03541250000000051"
"153","-0.022529999999996164","0.014154999999999696"
"154","0.0","0.0"
"155","0.0","0.0"
"156","0.0","0.0"
"157","0.0","0.0"
"158","0.0","0.0"
"159","0.0","0.0"
"160","0.0","0.0"
"161","0.0","0.0"
"162","0.0","0.0"
"163","0.0","0.0"
"164","0.0","0.0"
"165","0.0","0.0"
"166","0.0","0.0"
"167","0.0","0.0"
"168","0.0","0.0"
"169","0.0","0.0"
"170","0.0","0.0"
"171","0.0","0.0"
"172","0.0","0.0"
"173","0.0","0.0"
"174","-0.002567500000004941","0.014462500000000045"
"175","-0.004637500000008288","0.019979999999999887"
"176","0.0","0.0"
"177","-0.01109499999999386","0.015022499999999495"
"178","-0.019904285714285867","0.009237142857142848"
"179","-0.010550000000009163","0.009360000000000035"
"180","-0.01642000000001076","0.01552000000000131"
"181","0.0","0.0"
"182","0.0","0.0"
"183","0.0","0.0"
"184","0.0","0.0"
"185","0.0","0.0"
"186","0.0","0.0"
"187","0.0","0.0"
"188","0.0","0.0"
"189","-0.012239999999999807","0.016220000000002344"
"190","-0.022316666666673275","0.0201466666666672"
"191","-0.004503333333329825","0.010173333333332776"
"192","-0.012279999999994592","0.010696666666666724"
"193","0.0","0.0"
"194","-0.02111124999999925","0.024748749999999875"
"195","-0.011399999999994748","0.01524750000000008"
"196","-0.031523333333334826","0.016976666666666418"
"197","-0.01834999999998388","8.200000000000429E-4"
"198","0.0","0.0"
"199","-0.017604999999992543","0.01393999999999962"
"200","0.0","0.0"
"201","0.0","0.0"
"202","0.0","0.0"
"203","0.0","0.0"
"204","0.0","0.0"
"205","0.0","0.0"
"206","0.0","0.0"
"207","0.0","0.0"
"208","0.0","0.0"
"209","0.0","0.0"
"210","0.0","0.0"
"211","0.0","0.0"
"212","0.0","0.0"
"213","0.0","0.0"
"214","0.0","0.0"
"215","0.0","0.0"
"216","0.0","0.0"
"217","0.0","0.0"
"218","0.0","0.0"
"219","0.0","0.0"
"220","0.0","0.0"
"221","0.0","0.0"
"222","-0.0031699999999972306","0.014416666666666819"
"223","-0.0029600000000051807","0.0026200000000002888"
"224","-0.006265000000006182","0.002234999999999765"
"225","-0.0036737500000025847","0.005759999999999876"
"226","-0.005334999999988099","0.006384999999999863"
"227","-0.0011450000000081673","0.00820500000000024"
"228","-0.011186000000000718","0.008807999999999438"
"229","-0.011267142857138066","0.017881428571429176"
"230","0.0","0.0"
"231","0.0","0.0"
"232","0.0","0.0"
"233","0.0","0.0"
"234","-0.003921428571428821","0.0037642857142858232"
"235","0.0","0.0"
"236","-0.018904999999989514","0.026980000000000892"
"237","-0.0032700000000005502","0.0014000000000020663"
"238","-8.999999998593466E-5","0.003930000000000433"
"239","-0.005480000000000966","0.003169999999999007"
"240","-0.005558749999998724","0.012968749999999751"
"241","-0.009731250000000413","0.004773750000000021"
"242","-0.01402400000000128","0.022035999999999945"
"243","-0.02840333333333452","0.028460000000000225"
"244","-0.015949999999998948","0.025866666666666777"
"245","-0.038526666666669485","0.042939999999999756"
"246","-0.023501999999999156","0.05876000000000055"
"247","0.0","0.0"
"248","0.0","0.0"
"249","0.0","0.0"
"250","0.0","0.0"
"251","0.0","0.0"
"252","0.0","0.0"
"253","0.0","0.0"
"254","0.0","0.0"
"255","0.0","0.0"
"256","0.0","0.0"
"257","0.0","0.0"
"258","0.0","0.0"
"259","0.0","0.0"
"260","0.0","0.0"
"261","0.0","0.0"
"262","0.0","0.0"
"263","0.0","0.0"
"264","0.0","0.0"
"265","-0.005429999999996937","0.009820000000001272"
"266","-0.006393333333332881","0.012716666666666635"
"267","-0.0038274999999980963","0.012572500000000542"
"268","-0.0072949999999956106","0.008622499999999533"
"269","-0.011994000000004234","0.011974000000000018"
"270","-0.009430000000001826","0.013515000000000832"
"271","-0.007975217391306258","0.009113478260869395"
"272","0.0","0.0"
"273","-0.02319999999999567","0.009214999999999307"
"274","-0.001539999999996174","0.010236666666666375"
"275","-0.004660000000001219","0.0014933333333324583"
"276","-0.003662307692307055","0.00660846153846155"
"277","-0.009390555555554335","0.00689055555555582"
"278","-0.00633529411764755","0.005886470588235326"
"279","0.0","0.0"
"280","0.0","0.0"
"281","-0.48734564102564093","0.22411333333333308"
"282","0.0","0.0"
"283","-0.03275833333333603","0.028149999999999526"
"284","-0.010264999999999969","0.0047600000000000975"
"285","-0.012351999999998498","0.02114333333333344"
"286","-0.03770249999999642","0.02694875000000052"
"287","-0.024567857142855587","0.01687214285714259"
"288","-0.00603874999999654","0.006816249999999968"
"289","-0.008071249999998198","0.007553750000000248"
"290","-0.008878571428575859","0.005607142857143239"
"291","-0.015679999999999694","0.0074200000000015365"
"292","-0.003569999999999851","0.010730000000000572"
"293","0.0","0.0"
"294","-0.016149999999999665","0.01120000000000232"
"295","-0.010754999999999626","0.017709999999999226"
"296","0.0","0.0"
"297","0.0","0.0"
"298","-0.021059999999998524","0.016870000000002605"
"299","-0.007070000000001168","0.009443333333332285"
"300","-0.005179999999999296","0.015254999999999797"
"301","0.0","0.0"
"302","-0.01095499999999916","0.008910000000000196"
"303","-0.004069999999998686","0.009739999999998972"
"304","-4.3999999999044803E-4","0.008820000000001826"
"305","-0.0032100000000028217","0.0075299999999991485"
"306","-3.9000000000299906E-4","0.0032799999999983953"
"307","0.0","0.0"
"308","0.0","0.0"
"309","-0.01923999999999874","0.009933333333333275"
"310","-0.004799999999998287","0.022560000000000358"
"311","-0.012636666666666704","0.012051666666666053"
"312","-0.012035999999999093","0.0027079999999997995"
"313","-0.016665000000001484","0.01478249999999992"
"314","-0.0070390909090954","0.0050036363636362"
"315","-0.0028299999999958914","0.0027449999999999974"
"316","0.0","0.0"
"317","-0.00410166666666593","0.0066216666666661554"
"318","-0.007561333333334612","0.011584000000000809"
"319","0.0","0.0"
"320","-0.004129411764705036","0.004076470588235198"
"321","-0.006979999999984443","0.006030000000000868"
"322","0.0","0.0"
"323","-0.0019499999999889421","0.004199999999999686"
"324","-0.057657500000003026","0.01658874999999993"
"325","-0.004812631578944679","0.005817368421052855"
"326","-0.009347999999999246","0.004427500000000162"
"327","-0.003359999999986485","0.012420000000000542"
"328","-0.01633250000000075","0.007512500000000033"
"329","0.0","0.0"
"330","-0.10471999999998616","0.05883000000000216"
"331","-0.016176666666668876","0.016096666666666277"
"332","-0.014731249999999863","0.020174999999999832"
"333","-0.015523076923076","0.015469230769230654"
"334","-0.007930000000001769","4.299999999997084E-4"
"335","-0.0018299999999999983","0.01676000000000144"
"336","-0.005295714285713261","0.012010000000000076"
"337","-0.012145000000001691","0.016962142857142735"
"338","-0.01223750000000301","0.012889999999998736"
"339","-0.009238333333329388","0.011180000000001003"
"340","-0.009084444444444747","0.009299999999999642"
"341","-0.009312857142861881","0.006580000000000094"
"342","-0.00909600000000168","0.003874000000000777"
"343","-0.011017500000002123","0.009987499999999816"
"344","-0.009811666666666477","0.012234999999999552"
"345","-0.009283333333334198","0.008280000000000065"
"346","0.0","0.0"
"347","-1.200000000025625E-4","0.0038700000000009283"
"348","-0.008610000000004447","0.00586999999999982"
"349","-0.02733500000000788","0.0017899999999997362"
"350","-0.003799999999991144","9.900000000016007E-4"
"351","0.0","0.0"
"352","-0.0012900000000009015","0.003489999999998439"
"353","-0.00783333333333284","0.006756666666666078"
"354","-0.007232500000000641","0.005057499999999493"
"355","-0.0031899999999964734","0.006336666666666583"
"356","-0.005720000000000169","0.0033449999999994873"
"357","-0.007710000000002992","0.016319999999999446"
"358","-0.002480000000005589","0.011250000000000426"
"359","-0.005255000000001786","0.004159999999999275"
"360","-0.006569999999992859","0.005395000000000927"
"361","-0.009890000000012833","0.008869999999999933"
"362","-0.005299999999998306","0.010745000000000005"
"363","-0.023810909090909407","0.020510000000000615"
"364","-0.008883333333336907","0.006419999999999722"
"365","-0.010682500000005035","0.007617499999999833"
"366","-0.007373749999997514","0.017843749999999714"
"367","-0.013132105263155692","0.010537368421052176"
"368","-0.009165000000010082","0.007645000000000124"
"369","0.0","0.0"
"370","-0.007564545454550078","0.00833545454545453"
"371","-0.006679565217389129","0.005963043478260565"
"372","-0.018471428571424604","0.005360000000000095"
"373","-0.011612727272731408","0.006009090909091116"
"374","-0.020823333333334897","0.004653333333333028"
"375","0.0","0.0"
"376","0.0","0.0"
"377","0.0","0.0"
"378","-0.02706749999999758","0.02095750000000063"
"379","0.0","0.0"
"380","-0.018276666666666348","0.0265516666666669"
"381","-0.14910428571428597","0.09590571428571439"
"382","-0.007863999999999649","0.0082259999999998"
"383","-0.006937499999999375","0.024902499999999606"
"384","-0.026139999999998054","0.042375000000002494"
"385","-0.014130000000005083","0.01820000000000377"
"386","0.0","0.0"
"387","0.0","0.0"
"388","0.0","0.0"
"389","-0.010025999999996316","0.010356000000001586"
"390","-0.011507499999998672","0.010392499999999139"
"391","-0.007949999999993906","0.0055600000000008976"
"392","0.0","0.0"
"393","-0.008259999999995197","0.008953333333333072"
"394","-0.00859999999999772","0.013564999999999827"
"395","-0.005249999999996646","0.005710000000000548"
"396","-0.007970000000000255","0.009249999999999758"
"397","-0.003740000000007626","3.4000000000133923E-4"
"398","-0.009197499999997305","0.016062499999999424"
"399","0.0","0.0"
"400","0.0","0.0"
"401","-0.0035600000000002296","0.004320000000003432"
"402","-0.007579999999997256","9.900000000016007E-4"
"403","0.0","0.0"
"404","-0.0027100000000004343","0.014849999999999142"
"405","-0.026789999999998315","5.799999999993588E-4"
"406","-0.006362000000002865","0.008669999999998623"
"407","-0.00809916666666588","0.008165833333333428"
"408","-0.006915000000001707","0.008656666666666387"
"409","-0.005762499999997672","0.010944999999999094"
"410","-0.006914999999994602","0.007516666666667504"
"411","-0.01120999999999365","0.006803333333332755"
"412","-0.007248378378376186","0.007654594594594403"
"413","-0.009608461538463713","0.006524615384615701"
"414","-0.00927060606060703","0.012394545454545453"
"415","-0.00766781250000248","0.005640937499999832"
"416","-0.008951875000001053","0.005501874999999323"
"417","-0.04637923076923082","0.018448461538461913"
"418","-0.020833623188405065","0.014534347826086412"
"419","-0.18086194805194758","0.14026233766233762"
"420","-0.010387567567565117","0.007828918918919233"
"421","-0.042251999999993475","0.004950000000000188"
"422","-0.02089499999999589","0.0038850000000021367"
"423","0.0","0.0"
"424","-0.043300000000002115","0.03771499999999861"
"425","-0.037316666666659636","0.023970000000000862"
"426","0.0","0.0"
"427","-0.10758200000000233","0.03954799999999992"
"428","-0.018759999999993227","0.009714999999998142"
"429","-0.0034999999999882903","0.03353999999999502"
"430","-0.011394999999999378","0.013749999999996376"
"431","-0.04475333333333609","0.024396666666667954"
"432","-0.01796000000000042","0.007225000000001813"
"433","-0.018440000000012446","0.009979999999998768"
"434","-0.018859999999996546","0.02426000000000054"
"435","-0.020974999999999966","0.021229999999999194"
"436","-0.011249999999989768","0.019010000000001526"
"437","-0.008720000000003836","0.00817999999999941"
"438","-0.007905000000000939","0.006410000000000693"
"439","-0.005311666666666308","0.005796666666666302"
"440","0.0","0.0"
"441","-0.003726666666667692","0.006716666666665816"
"442","-0.00764249999999933","0.011102499999999793"
"443","0.0","0.0"
"444","-0.004551999999999623","0.008253999999999451"
"445","-0.005974285714284885","0.009684285714285526"
"446","-0.010539999999997107","0.01293250000000068"
"447","-0.007380000000000386","0.008310000000000262"
"448","-0.004756666666670147","0.0057866666666654965"
"449","-0.007300000000003119","0.010356666666667754"
"450","-0.009660000000000224","0.00505999999999851"
"451","-0.006270000000007769","0.007629999999995363"
"452","-0.011946666666666772","0.018566666666668397"
"453","-0.0070812500000032585","0.009981249999999164"
"454","-0.0038306666666665973","0.008570000000000277"
"455","-0.003725400000000718","0.006163600000000074"
"456","-0.4902590000000025","0.39726350000000005"
"457","-0.008677499999997451","0.006340000000000678"
"458","-0.027640344827586143","0.02659310344827575"
"459","-0.009121749999999196","0.016281000000000035"
"460","0.0","0.0"
"461","-0.010132307692311078","0.0174053846153854"
"462","-0.015492857142857832","0.009580000000002238"
"463","-0.01842272727272907","0.018096363636364222"
"464","-0.020898333333333834","0.028522916666667175"
"465","0.0","0.0"
"466","-0.03446818181817884","0.022049999999999802"
"467","0.0","0.0"
"468","-0.00338333333333433","0.004436666666666866"
"469","-0.02754153846153866","0.007132307692307686"
"470","0.0","0.0"
"471","-0.07142000000000337","0.07057000000000357"
"472","-0.03355499999999815","0.04946999999999887"
"473","-0.05847375000000177","0.04964000000000102"
"474","-0.05485875000000007","0.07451249999999998"
"475","-0.16848000000000063","0.21025000000000205"
"476","0.0","0.0"
"477","0.0","0.0"
"478","-0.023611428571429855","0.019563571428571284"
"479","-0.04237249999999548","0.10386000000000006"
"480","-0.02058857142857359","0.011564285714285916"
"481","-0.020094999999997754","0.016419999999998325"
"482","0.0","0.0"
"483","0.0","0.0"
"484","0.0","0.0"
"485","-0.0071999999999997994","0.009459999999999505"
"486","-0.0020200000000087925","0.006249999999999645"
"487","-0.007789999999999964","0.010209999999997166"
"488","-0.11138000000000048","0.11819500000000005"
"489","-0.001449999999998397","0.009330000000002059"
"490","-0.015670000000000073","0.01455999999999591"
"491","-0.01772999999999314","0.006870000000002818"
"492","-0.016930000000009215","0.017890000000001294"
"493","-0.01900749999999718","0.008457499999999563"
"494","-0.013259999999995387","0.02376000000000289"
"495","-0.024719999999994968","0.009690000000002641"
"496","-0.018840000000000856","0.009875000000002743"
"497","-0.007899999999998337","0.04784142857142878"
"498","-0.01029333333333445","0.015261666666667395"
"499","-0.019449999999998288","0.016506666666666645"
"500","-0.013448571428572873","0.020654285714285386"
"501","-0.018835000000001045","0.006131666666666646"
"502","-0.0066442857142874345","0.0036171428571424463"
"503","-0.006535714285707935","0.007411428571428656"
"504","-0.010258571428569294","0.011155714285713205"
"505","-0.015458571428567325","0.03364999999999948"
"506","-0.015300000000001843","0.011689999999999756"
"507","-0.0064542857142829545","0.006631428571428748"
"508","-0.010726470588237776","0.011829411764706107"
"509","-0.007685000000005715","0.012457500000000898"
"510","-0.02273909090908691","0.01951727272727378"
"511","-0.020732142857145926","0.016808571428570777"
"512","-0.06236321428571401","0.051310357142857733"
"513","-0.0232299999999955","0.03974272727272776"
"514","-0.05281600000000234","0.029930666666666876"
"515","-0.005234285714284478","0.0377771428571414"
"516","-0.010445000000004256","0.06106499999999926"
"517","0.0","0.0"
"518","0.0","0.0"
"519","-0.058190869565218836","0.06352999999999963"
"520","-0.048168999999998616","0.04217599999999884"
"521","-0.05942055555555855","0.052338888888888685"
"522","-0.026702222222222086","0.04270777777777744"
"523","-0.03189500000000015","0.0466883333333327"
"524","-0.04171428571428594","0.04250142857142945"
"525","-0.028563333333334384","0.013203333333333234"
"526","-0.03509200000000092","0.02080999999999946"
"527","0.0","0.0"
"528","-0.04529124999999823","0.04688749999999953"
"529","-0.02060142857142974","0.01159285714285677"
"530","-0.0027299999999961244","0.006944999999999979"
"531","-0.009105000000001695","0.007137500000001573"
"532","-0.034028750000000496","0.042780000000000484"
"533","-0.012209166666666604","0.01721499999999961"
"534","-0.025460000000009586","0.01214000000000226"
"535","0.0","0.0"
"536","0.0","0.0"
"537","-0.013579999999997483","0.0172499999999971"
"538","-0.046390000000002374","0.009219999999999118"
"539","0.0","0.0"
"540","-0.014689999999998093","0.008834999999999482"
"541","-0.0076400000000020896","0.018385000000000318"
"542","0.0","0.0"
"543","-0.010189999999998634","0.015256000000000113"
"544","-0.007096666666664457","0.002176666666668344"
"545","0.0","0.0"
"546","-0.0028399999999990655","0.0024700000000024147"
"547","-0.012846666666664674","0.01294333333333301"
"548","-0.010350000000000156","0.015789999999999083"
"549","-0.011236000000003799","0.016146000000000528"
"550","-0.004345000000007815","0.0031799999999986284"
"551","-0.009221999999999753","0.011068000000001632"
"552","-0.00902000000000669","0.0207566666666672"
"553","-0.012990000000016266","0.23404999999999987"
"554","0.0","0.0"
"555","-0.008975000000006617","0.011939999999999173"
"556","-0.011566666666671685","0.015259999999999016"
"557","-0.012804615384618719","0.01571307692307755"
"558","-0.013127777777774617","0.010234444444444633"
"559","-0.040180000000006544","0.05905374999999946"
"560","-0.0685838461538473","0.052122307692307586"
"561","-0.08220499999999992","0.058673181818182485"
"562","-0.04474000000000444","0.10452000000000083"
"563","-0.013632903225806287","0.01653935483870927"
"564","0.0","0.0"
"565","-0.009810000000015862","0.005409999999997694"
"566","-0.04820647058823499","0.009595882352940692"
"567","-0.05645466666666987","0.01637000000000057"
"568","-0.03233500000000489","0.015493749999999196"
"569","-0.10971600000000307","0.032287999999999074"
"570","-0.0770366666666688","-0.01727333333333192"
"571","-0.02601500000000101","0.012774999999999537"
"572","-0.05205999999999378","0.056774000000001476"
"573","-0.11966872448979553","-0.0015287244897961023"
"574","-0.006158048780488028","0.00510243902439005"
"575","-0.008479000000002656","0.0031200000000001895"
"576","-0.014949090909088884","-0.0010999999999996971"
"577","-0.040766666666666","0.03146333333333276"
"578","-0.011740769230770755","-0.0017538461538458923"
"579","-0.01698909090909143","0.00970454545454593"
"580","-0.025884999999997643","0.03622166666666556"
"581","-0.027592999999999535","0.023924000000000233"
"582","-0.06265500000000183","-0.01857833333333403"
"583","-0.017608999999999497","-0.004457000000000022"
"584","-1.123256666666671","-0.07646166666666569"
"585","-0.008061428571426379","-0.0013714285714268978"
"586","-0.005243636363635512","0.0046963636363644475"
"587","-0.0016099999999970767","0.013483333333332107"
"588","-0.009052857142860051","-6.457142857147094E-4"
"589","-0.006777500000000103","-0.006347499999999506"
"590","-0.004659999999997666","0.0034799999999988174"
"591","-0.010880000000000223","0.003280000000001948"
"592","0.0","0.0"
"593","-0.07150333333333474","-0.03641333333333563"
"594","-0.005392500000000133","-0.005406250000000501"
"595","-0.0012199999999964461","4.0000000002038405E-5"
"596","-0.004055714285714528","-0.017121428571428003"
"597","-0.016109999999997626","0.007593333333334821"
"598","-0.02108999999999857","-0.020465000000000327"
"599","-0.0340450000000061","-0.024040000000002948"
"600","-0.0018500000000045702","-0.004329999999999501"
"601","-0.012084999999999013","-0.0016250000000006537"
"602","-0.027965000000005347","-0.003649999999999487"
"603","-0.04852666666666986","7.933333333340897E-4"
"604","-0.061506666666665585","-0.0070055555555564"
"605","-0.06328000000000245","0.04563000000000006"
"606","-0.05503625000000412","-2.1874999999941616E-4"
"607","-0.05365619047619099","-0.012914999999999989"
"608","-0.042606470588235454","0.02281941176470624"
"609","-0.0792724999999983","-0.07618375000000066"
"610","-0.021638125000000397","-0.011983125000000538"
"611","0.0","0.0"
"612","0.0","0.0"
"613","-0.008565000000004375","-0.12137500000000223"
"614","-0.06410571428571389","-0.045831428571428745"
"615","-0.05222249999999695","-0.04207250000000062"
"616","-0.08200000000000074","-0.029790000000003758"
"617","-0.017686666666672107","-0.029838333333333484"
"618","-0.02414300000000367","-0.02549900000000065"
"619","-0.018211249999999346","-0.01010875000000011"
"620","-0.013532499999998393","-0.011479999999998824"
"621","-0.015897999999997837","-0.009583999999999548"
"622","-0.006710000000012428","-0.005250000000000199"
"623","-0.002580000000001803","-0.004620000000000957"
"624","-0.01730666666667228","-0.013284999999999178"
"625","-0.014249999999996987","-0.0037799999999990064"
"626","-0.0074966666666658925","-0.01742666666666537"
"627","-0.011504999999999654","-0.009120000000001127"
"628","-0.006165000000002863","-0.006199999999999761"
"629","-0.011533333333334875","-0.013613333333333108"
"630","-0.006400000000004032","-0.005150000000001616"
"631","-0.008704285714285578","-0.006770000000000006"
"632","-0.012965555555555378","-0.007222222222222759"
"633","-0.007954999999999757","-0.006879999999999597"
"634","-0.01125222222222296","-0.010228888888889287"
"635","-5.250000000032173E-4","-0.010034999999998462"
"636","-0.009656666666669386","-0.004326666666666294"
"637","-0.007402999999999338","-0.006719000000000008"
"638","-0.011734999999996276","-0.007130000000000081"
"639","-0.04558833333333231","-0.03212333333333284"
"640","0.0","0.0"
"641","-0.005551999999997293","-0.0026739999999996654"
"642","-0.005102500000001342","-0.013062500000001975"
"643","-0.007671999999997325","-0.015850499999999813"
"644","-0.02150052631579133","-0.027707894736841945"
"645","-0.027685454545453517","-0.017850000000000546"
"646","-0.01182166666666499","-0.021075000000000326"
"647","-0.008340000000004011","-0.005720000000001946"
"648","-0.04070499999999555","-0.015154999999998253"
"649","-0.019540588235292276","-0.02517941176470582"
"650","-0.015137499999998028","-0.0252800000000013"
"651","-0.10777142857142914","-0.05175142857142946"
"652","-0.062730833333332","-0.04987000000000119"
"653","-0.023592142857139668","-0.03243142857142851"
"654","-0.035063333333332496","-0.031146999999999637"
"655","-0.06962799999999873","-0.12087900000000004"
"656","-0.010647499999997478","-0.018447499999999728"
"657","-0.014287272727271856","-0.01667999999999995"
"658","-0.0026550000000185037","-0.002729999999999677"
"659","-0.009020000000004321","-0.0046966666666676815"
"660","-0.036531999999994014","-0.036704000000001714"
"661","-0.009763333333334087","-0.0074999999999991"
"662","-0.01071000000000133","-0.015989999999998616"
"663","-0.017824999999997537","-0.029100000000000126"
"664","-0.004753333333341085","-0.006209999999999383"
"665","-0.016726000000000595","-0.02030799999999857"
"666","-0.04130666666666135","-0.027080000000000364"
"667","-0.011329999999997398","-3.9999999999551505E-4"
"668","-0.017737999999999234","-0.008247999999998968"
"669","0.0","0.0"
"670","-0.0027966666666673725","-0.007040000000002304"
"671","-0.017579999999995266","-0.0023499999999962995"
"672","-0.00350000000000783","-0.007869999999996935"
"673","0.0","0.0"
"674","-0.0054000000000051784","-0.004544999999998467"
"675","-0.007665000000006472","-0.0034499999999972886"
"676","-0.012174000000003104","-0.006006"
"677","-0.00685500000000161","-0.001474999999999227"
"678","0.0","0.0"
"679","-0.007800000000003138","-0.001300000000000523"
"680","-0.005539999999996326","-6.600000000034356E-4"
"681","-0.0026799999999944646","-0.005230000000000956"
"682","-0.010290000000001243","-0.004709999999999326"
"683","-0.011480000000001192","-0.010213333333331557"
"684","-0.007026666666667107","-0.011166666666666695"
"685","-0.03408499999999748","-0.008860000000000312"
"686","-0.017875000000000973","-0.015148749999999378"
"687","-0.007863333333334074","-0.010506666666666812"
"688","-0.009011818181817753","-0.007421818181819165"
"689","-0.026360909090908147","-0.02579181818181908"
"690","0.0","0.0"
"691","-0.011539999999996553","-0.004159999999995279"
"692","-0.014537499999996761","-0.020548749999998783"
"693","-0.012074444444443265","-0.006814444444445418"
"694","-0.016158750000000666","-0.007037499999999586"
"695","-0.011719999999999686","-0.011420000000000385"
"696","-0.013889999999997826","-0.013695999999999486"
"697","-0.013550000000002171","-0.008509999999999351"
"698","-0.03196999999999832","-0.02038499999999992"
"699","-0.01646499999999662","-0.020654999999999646"
"700","-0.03149133333333509","-0.029984666666666254"
"701","-0.013539999999997982","-0.010647142857142253"
"702","-0.03300000000001546","-0.03611000000000075"
"703","-0.015859999999996433","-0.02922500000000383"
"704","-0.013474999999999238","-0.017760312499999764"
"705","-0.003100000000017644","-0.01116000000000028"
"706","-0.007630000000002357","-0.024804999999997968"
"707","-0.010674999999999102","-0.0069350000000003575"
"708","-0.15010000000000456","-0.02411500000000011"
"709","-0.011744285714286207","-0.0164835714285709"
"710","-0.026857499999999312","-0.009698333333333883"
"711","-0.056639999999998324","-0.0056866666666657295"
"712","-0.028486666666663513","-0.01994166666666608"
"713","-0.01859333333333879","-0.025573333333333892"
"714","0.0","0.0"
"715","-0.012897777777778193","-0.009677777777777723"
"716","-0.023273333333335106","-0.023938333333332434"
"717","0.0","0.0"
"718","-0.014314000000001196","-0.0040939999999999085"
"719","0.0","0.0"
"720","-0.004424999999999457","-0.006665000000003474"
"721","-0.0059974999999976575","-0.004547499999997484"
"722","-0.00141999999999598","-0.007259999999998712"
"723","-0.005359999999999587","-0.022199999999999775"
"724","-0.001435000000004294","-0.016715000000001368"
"725","-0.0074850000000026284","-0.008279999999999177"
"726","0.0","0.0"
"727","-0.0085550000000012","-0.018235000000002444"
"728","-0.0016100000000065506","-0.0020199999999981344"
"729","-0.00973333333333315","-0.00734833333333403"
"730","-0.03165499999999355","-0.0656200000000009"
"731","-0.008810000000003981","-0.006580000000003139"
"732","0.0","0.0"
"733","-0.03435000000000107","-0.024666666666669574"
"734","0.0","0.0"
"735","0.0","0.0"
"736","-0.01614833333333247","-0.010961666666666167"
"737","-0.014614999999992051","-0.0029250000000011767"
"738","-0.004174999999996487","-0.011104999999995258"
"739","-0.012125000000004604","-0.00712500000000027"
"740","-0.003102500000004227","-0.007314999999998406"
"741","-0.010600666666661596","-0.007446666666666128"
"742","-0.013611666666669464","-0.026643333333333647"
"743","-0.1534671111111101","-0.4391048888888893"
"744","-0.05643250000000085","-0.03267916666666526"
"745","-0.01856250000000159","-0.012286999999999182"
"746","-0.0052400000000005775","-0.009759999999997623"
"747","-0.017304999999997614","-0.019230769230769777"
"748","-0.013590833333334254","-0.014690000000000758"
"749","-0.10917999999999495","-0.20160499999999715"
"750","-0.0019699999999858164","-8.799999999968833E-4"
"751","-0.012631999999997135","-0.010033999999999921"
"752","-0.004821666666659989","-0.004553333333335037"
"753","-0.006757692307692204","-0.013393846153847404"
"754","-0.005147999999999797","-0.0076640000000008255"
"755","-0.013797777777778662","-0.007724444444444127"
"756","-0.015398095238094947","-0.01431523809523718"
"757","-0.1551103846153833","-0.0650546153846146"
"758","-0.04190333333333266","-0.014123333333339852"
"759","-0.018121428571427955","-0.009178571428570592"
"760","-0.02382230769230549","-0.025006923076924946"
"761","-0.23061138888888977","-0.07462027777777663"
"762","-0.017782499999998702","-0.007907500000001288"
"763","-0.01338499999999776","-0.030255999999999263"
"764","-0.006085384615387076","-0.00812538461538664"
"765","-0.0050509090909074605","-0.014314545454546135"
"766","-0.0040624999999980815","-0.006035000000004231"
"767","-0.005440000000001888","-0.00664000000000442"
"768","-0.010239999999999583","-0.004390000000000782"
"769","-0.013700000000007151","-0.008890000000000953"
"770","-0.014310000000001821","-0.01896000000000697"
"771","0.0","0.0"
"772","-0.004250000000006082","-0.007630000000006021"
"773","-6.699999999995043E-4","-0.008890000000000953"
"774","-0.013470000000001647","-0.006720000000004944"
"775","-0.004335000000001088","-0.004444999999996924"
"776","-0.003839999999996735","-0.004920000000005587"
"777","0.0","0.0"
"778","-0.022470000000003765","-0.038087500000000496"
"779","-0.006913333333332143","-0.029443333333328308"
"780","-0.017031111111110577","-0.03694999999999974"
"781","-0.037763333333330706","-0.04453999999999662"
"782","-0.023666666666667564","-0.028227777777777716"
"783","-0.013771428571429973","-0.00753714285714275"
"784","-0.004063333333339377","-0.012133333333333477"
"785","-0.0048199999999951615","-0.009079999999990207"
"786","-0.0073100000000039245","-0.020189999999999486"
"787","-0.007512727272729659","-0.020322727272726902"
"788","-0.010515000000002318","-0.009135000000000915"
"789","-0.011355185185186235","-0.012494444444444076"
"790","-0.020159999999998252","-0.012519166666665674"
"791","-0.02471263157894561","-0.01866421052631601"
"792","-0.01035368421052552","-0.008988947368421998"
"793","-0.0247792857142858","-0.026368214285714738"
"794","-0.0111259615384614","-0.013686730769228994"
"795","-0.05812608333333233","-0.13359416666666654"
"796","-0.17604655737705074","-0.5282901639344256"
"797","0.0","0.0"
"798","-0.021537894736840115","-0.015110526315789224"
"799","-0.004230000000006839","-0.005459999999999354"
"800","-1.1999999999545707E-4","-0.0014000000000038426"
"801","-0.00731666666666876","-0.015055555555554021"
"802","-0.027437000000001266","-0.01310099999999963"
"803","-0.03233999999999973","-0.02083461538461588"
"804","-0.024653703703704077","-0.020172592592593134"
"805","-0.016696190476192134","-0.013190476190476915"
"806","-0.022232222222223343","-0.018282222222224063"
"807","-0.0369883333333334","-0.046030833333336574"
"808","-0.008216785714286015","-0.007828928571426934"
"809","-0.008537142857143973","-0.007550000000000929"
"810","-0.005890000000000839","-0.010386000000002582"
"811","-0.011875454545455194","-0.011319090909092918"
"812","-0.0065566666666661885","-0.009340000000002154"
"813","-0.004095000000001292","-0.01808499999999924"
"814","-0.0020366666666665387","-0.00714999999999814"
"815","0.0","0.0"
"816","-0.003185000000001992","-0.0014100000000070168"
"817","-0.01780333333333317","-0.005423333333337628"
"818","-0.15402500000000194","-0.004540000000001025"
"819","-0.004150000000002763","-0.001649999999997931"
"820","-0.005500000000001393","-0.004334999999997535"
"821","-0.0061850000000021055","-0.0064099999999989166"
"822","-0.011554999999997762","-0.002560000000006113"
"823","-0.005780000000001451","-0.014140000000004704"
"824","-0.007016000000002976","-0.0034199999999984243"
"825","-0.006607499999997657","-0.006962500000001981"
"826","-0.017564000000000135","-0.019457999999998775"
"827","-0.012449999999994077","-0.004414999999998059"
"828","-0.019650909090907345","-0.012497272727272767"
"829","-0.009933636363635272","-0.011173636363636774"
"830","-0.008273333333335131","-0.007418333333329012"
"831","-0.010144285714291965","-0.006868571428575316"
"832","-0.007995999999994296","-0.006989999999998986"
"833","-0.011183000000002608","-0.006573000000000206"
"834","-0.016793749999997942","-0.01152749999999969"
"835","-0.007490909090907136","-0.009826363636364022"
"836","-0.012383658536585941","-0.012546341463414509"
"837","-0.008703939393938778","-0.009527272727272915"
"838","-0.013774117647057316","-0.017171764705882626"
"839","-0.0169828571428566","-0.015502653061224808"
"840","-0.017318387096774437","-0.013205806451613322"
"841","-0.01738000000000126","-0.015991111111111265"
"842","-0.004111999999999938","-0.008107499999999846"
"843","-0.005526333333331006","-0.0029746666666660817"
"844","-0.09391333333332359","-0.06766666666666528"
"845","0.0","0.0"
"846","-0.007040000000003488","-0.007046666666667534"
"847","0.0","0.0"
"848","-0.013131818181818744","-1.1114363636363658"
"849","-0.005379999999993857","-0.002841999999998279"
"850","-0.024051363636362923","-0.02868409090909132"
"851","-0.025222500000000432","-0.03758249999999995"
"852","-0.010901176470589224","-0.010654705882352707"
"853","-0.01482833333333374","-0.014693333333332484"
"854","-0.01340049999999966","-0.012219000000000335"
"855","-0.007243333333333861","-0.006264999999999077"
"856","-0.009953333333335479","-0.01696500000000138"
"857","-0.02038199999999506","-0.019590000000000884"
"858","-0.008969999999994371","-0.008839999999999293"
"859","-0.007753750000000892","-0.004640000000001088"
"860","-0.005659999999998888","-0.01489000000000118"
"861","0.0","0.0"
"862","0.0","0.0"
"863","0.0","0.0"
"864","0.0","0.0"
"865","0.0","0.0"
"866","0.0","0.0"
"867","0.0","0.0"
"868","0.0","0.0"
"869","0.0","0.0"
"870","0.0","0.0"
"871","0.0","0.0"
"872","-0.006919999999997373","-0.005926666666668486"
"873","-0.006182499999999536","-0.01011625000000027"
"874","-0.005904999999998495","-0.00970500000000385"
"875","-0.01814000000000604","-0.004455000000000098"
"876","0.0","0.0"
"877","-0.006129999999998859","-0.0014049999999983243"
"878","-0.003439999999997667","-0.011359999999996262"
"879","-0.017958571428575203","-0.010327142857144216"
"880","-0.01900555555555488","-0.01721444444444605"
"881","-0.0073883333333337005","-0.012312499999999579"
"882","-0.008437777777778087","-0.009728888888889268"
"883","-0.012265789473688253","-0.02730210526315795"
"884","-0.010615555555558685","-0.01821444444444451"
"885","-0.01265772727272592","-0.012847727272726478"
"886","-0.012649666666670119","-0.01759999999999972"
"887","-0.013114761904762282","-0.015008571428571673"
"888","-0.011415333333332","-0.020495333333332155"
"889","-0.003618666666665623","-0.005791000000000205"
"890","-0.0039555172413789","-0.00609448275862028"
"891","0.0","0.0"
"892","0.0","0.0"
"893","-0.01603000000000776","-0.026285000000001446"
"894","-0.013584000000000174","-0.02943999999999818"
"895","-0.008752857142857198","-0.021249999999999453"
"896","-0.015370000000004325","-7.799999999917873E-4"
"897","-0.00819714285714517","-0.010165714285717189"
"898","-0.007100588235295835","-0.007887058823529254"
"899","-0.009785517241379193","-0.010961379310344665"
"900","-0.015610416666666701","-0.01206333333333287"
"901","-0.005853333333333389","-0.013885555555556076"
"902","-0.007731999999998606","-0.018913999999999476"
"903","-0.0024900000000052103","-0.0010400000000032605"
"904","0.0","0.0"
"905","-0.0032133333333336602","-0.011836666666669752"
"906","-0.005097727272727423","-0.00663272727272777"
"907","-0.0018550000000008282","-0.003129999999998745"
"908","-0.009224999999998929","-0.004547499999997484"
"909","-0.003710000000005209","-0.0016999999999995907"
"910","-0.00261000000000422","-0.00790999999999542"
"911","0.0","0.0"
"912","0.0","0.0"
"913","-0.0028550000000038267","-0.00812999999999775"
"914","0.0","0.0"
"915","0.0","0.0"
"916","-0.00738999999999379","-0.004730000000002121"
"917","-0.001809999999998979","-0.0097199999999944"
"918","-0.009134999999997007","-0.008200000000002206"
"919","0.0","0.0"
"920","0.0","0.0"
"921","-0.0037299999999973465","-0.004799999999995919"
"922","-0.015800000000002257","-0.007569999999997634"
"923","-0.00986999999999938","-0.013019999999997367"
"924","-0.004725000000000534","-0.017910000000000537"
"925","-0.010082499999999328","-0.007514999999999716"
"926","-0.0091374999999978","-0.012737500000000068"
"927","-0.009033333333334781","-0.01355333333333538"
"928","-0.019043333333333596","-0.020739999999998798"
"929","-0.008634999999998172","-0.01102374999999789"
"930","-0.009791000000002725","-0.016374999999998606"
"931","-0.00482333333333429","-0.010903333333331489"
"932","-0.012549999999990291","-0.0070699999999987995"
"933","-0.009265714285709643","-0.01675285714285784"
"934","-0.0069190909090909","-0.010308181818182695"
"935","-0.009375714285712076","-0.01256285714286065"
"936","-0.017068000000003282","-0.008614000000001454"
"937","-9.199999999935926E-4","-0.025960000000004868"
"938","0.0","0.0"
"939","0.0","0.0"
"940","-0.004319999999992774","-0.010690000000003863"
"941","-0.007057500000001937","-0.019741875000000242"
"942","-0.036709999999999354","-0.022440000000003124"
"943","-0.012791111111111617","-0.017454444444444068"
"944","-0.009388750000003832","-0.012339999999999574"
"945","-0.0112177777777812","-0.009073333333328529"
"946","-0.016789999999999593","-0.04288800000000066"
"947","-0.02165000000000017","-0.019175000000000608"
"948","-0.004380000000001161","-0.019854999999999734"
"949","-0.003695000000000448","-0.003334999999996313"
"950","-3.1999999999854367E-4","-5.900000000096384E-4"
"951","0.0","0.0"
"952","-0.007505000000000095","-0.005577499999999347"
"953","-0.003540000000000987","-6.800000000026785E-4"
"954","-0.005069999999996355","-0.006759999999992772"
"955","-1.7999999999673832E-4","-0.008560000000002788"
"956","-0.0034400000000047726","-3.299999999981651E-4"
"957","-0.004599999999996385","-0.004585000000002282"
"958","-0.003949999999999676","-7.199999999976114E-4"
"959","-0.008259999999999934","-0.008639999999999759"
"960","0.0","0.0"
"961","0.0","0.0"
"962","-0.0017700000000075988","-5.899999999954275E-4"
"963","0.0","0.0"
"964","0.0","0.0"
"965","0.0","0.0"
"966","0.0","0.0"
"967","-0.006046666666662759","-0.005569999999996374"
"968","-0.007243333333332676","-0.011599999999999019"
"969","-0.008483333333333102","-0.010369999999999399"
"970","-0.008164999999998201","-0.005955000000003707"
"971","-0.003407499999996233","-0.014607500000002105"
"972","-0.008009999999991635","-0.007359999999994926"
"973","-0.003684999999983063","-0.015254999999996244"
"974","0.0","0.0"
"975","0.0","0.0"
"976","-0.009569999999996526","-0.006910000000004857"
"977","-0.0030550000000033606","-0.004955000000002485"
"978","0.0","0.0"
"979","0.0","0.0"
"980","-0.0024099999999975807","-0.0033399999999943475"
"981","-0.017430000000004497","-0.01764999999999854"
"982","-0.018002000000001316","-0.01116400000000226"
"983","-0.02973999999999677","-0.02511000000000152"
"984","-0.019527999999996836","-0.017619999999998016"
"985","0.0","0.0"
"986","0.0","0.0"
"987","0.0","0.0"
"988","-0.006120333333334808","-0.013618333333332325"
"989","-0.0037666666666659556","-0.007278333333334312"
"990","-0.004757999999998574","-0.008726000000001477"
"991","-0.008567000000000746","-0.010529000000001787"
"992","0.0","0.0"
"993","0.0","0.0"
"994","-0.023327499999999723","-0.020172500000001037"
"995","-0.012279999999998145","-0.01272333333333601"
"996","-0.016545999999999596","-0.007346000000002561"
"997","0.0","0.0"
"998","0.0","0.0"
"999","0.0","0.0"
"1000","0.0","0.0"
"1001","-0.010925000000002072","-0.01810000000000045"
"1002","0.0","0.0"
"1003","-0.0015950000000017894","-0.003589999999999094"
"1004","-0.006929999999996994","-0.0038100000000014234"
"1005","0.0","0.0"
"1006","0.0","0.0"
"1007","-0.013069999999991921","-5.000000000165983E-5"
"1008","-0.004100000000001103","-0.006459999999999866"
"1009","-0.007257499999997918","-0.004209999999998715"
"1010","-0.005648000000002184","-0.005529999999998836"
"1011","-0.010730000000000572","-0.0029074999999991746"
"1012","-0.005482857142858677","-0.008277142857140112"
"1013","-0.0051266666666667975","-0.003664444444445457"
"1014","-0.004559999999997899","-0.006180000000000518"
"1015","-0.002420000000000755","-0.011060000000000514"
"1016","-0.002220000000001221","-0.02688999999999453"
"1017","0.0","0.0"
"1018","0.0","0.0"
"1019","-4.899999999992133E-4","-0.009470000000000312"
"1020","-0.006453333333335347","-0.008569999999998856"
"1021","-0.00382999999997935","-0.018750000000004263"
"1022","0.0","0.0"
"1023","0.0","0.0"
"1024","-0.004667500000003599","-0.0032174999999998732"
"1025","-0.008063333333334791","-0.014969999999998151"
"1026","0.0","0.0"
"1027","-0.014970000000005257","-0.017619999999986646"
"1028","-0.016302000000001725","-0.011157000000000038"
"1029","-0.0325600000000037","-0.020649999999999835"
"1030","-0.016684999999995398","-0.02860499999999888"
"1031","-0.017871999999997","-0.04517800000000136"
"1032","0.0","0.0"
"1033","0.0","0.0"
"1034","0.0","0.0"
"1035","-0.0010399999999890497","-0.029089999999996508"
"1036","-0.005964999999996223","-0.023364999999998304"
"1037","0.0","0.0"
"1038","-0.0038000000000029863","-0.002563333333334583"
"1039","0.0","0.0"
"1040","0.0","0.0"
"1041","0.0","0.0"
"1042","-0.003179999999996852","-0.025019999999997822"
"1043","-0.023299999999999748","-0.01599500000000071"
"1044","-0.022149999999999448","-0.01767000000000074"
"1045","-0.00864846153846207","-0.006883846153845989"
"1046","0.0","0.0"
"1047","0.0","0.0"
"1048","0.0","0.0"
"1049","0.0","0.0"
"1050","-0.007300000000007856","-0.014239999999993813"
"1051","-0.02324000000000126","-0.011680000000005464"
"1052","0.0","0.0"
"1053","-0.008340000000004011","-0.006610000000002003"
"1054","-0.002620000000007394","-0.006379999999992947"
"1055","0.0","0.0"
"1056","-0.0018699999999967076","-0.0019700000000071327"
"1057","-0.0023349999999986437","-0.01075999999999766"
"1058","-0.002980000000000871","-0.008420000000008088"
"1059","0.0","0.0"
"1060","0.0","0.0"
"1061","0.0","0.0"
"1062","-1.6999999999001147E-4","-0.016699999999993054"
"1063","-0.004709999999995773","-0.007410000000007244"
"1064","-0.014698333333332888","-0.011030000000000465"
"1065","0.0","0.0"
"1066","0.0","0.0"
"1067","0.0","0.0"
"1068","-3.499999999831971E-4","-0.003429999999994493"
"1069","-0.008450000000010505","-0.0157999999999916"
"1070","-0.011500000000012278","-0.007649999999998158"
"1071","0.0","0.0"
"1072","-0.005968571428571831","-0.017301428571431847"
"1073","-0.01814200000000028","-0.03217599999999834"
"1074","-0.015886363636366498","-0.011358181818183316"
"1075","0.0","0.0"
"1076","-0.019626666666667347","-0.02636666666666798"
"1077","-0.026046666666668255","-0.014809999999999471"
"1078","0.0","0.0"
"1079","0.0","0.0"
"1080","0.0","0.0"
"1081","0.0","0.0"
"1082","0.0","0.0"
"1083","-0.010989999999997243","-0.02651000000000181"
"1084","-0.0071944444444448485","-0.01050888888888974"
"1085","-0.006624999999999659","-0.010045000000001636"
"1086","0.0","0.0"
"1087","0.0","0.0"
"1088","0.0","0.0"
"1089","0.0","0.0"
"1090","0.0","0.0"
"1091","-0.009089999999996934","-0.02407999999999788"
"1092","-0.02602333333333225","-0.02522999999999816"
"1093","0.0","0.0"
"1094","0.0","0.0"
"1095","0.0","0.0"
"1096","0.0","0.0"
"1097","0.0","0.0"
"1098","-8.500000000069008E-4","-0.017150000000007992"
"1099","0.0","0.0"
"1100","-0.007360000000002032","-0.013365000000000293"
"1101","-4.800000000031446E-4","-6.79999999995573E-4"
"1102","0.0","0.0"
"1103","0.0","0.0"
"1104","-0.029460000000000264","-0.011470000000002756"
"1105","-0.009039999999998827","-0.009699999999997525"
"1106","-0.008090000000002817","-0.014489999999995007"
"1107","-0.0198500000000017","-0.011697499999998584"
"1108","-0.015119999999996026","-0.012083333333334187"
"1109","-0.017517500000002073","-0.011242500000001598"
"1110","-0.013491428571429407","-0.014448571428570542"
"1111","0.0","0.0"
"1112","0.0","0.0"
"1113","-0.02300999999999931","-0.0016099999999994452"
"1114","-0.016640000000009536","-0.012340000000001794"
"1115","-0.006769999999998315","-0.011403333333333876"
"1116","0.0","0.0"
"1117","-0.01697999999998956","-0.009330000000005612"
"1118","-0.01431999999999789","-0.009809999999999874"
"1119","-0.01300285714285719","-0.015109999999999957"
"1120","-0.007845714285713663","-0.019005714285713435"
"1121","-0.017049999999983356","-0.0026799999999980173"
"1122","-0.008226666666667862","-0.007516666666665135"
"1123","-0.007369999999994548","-0.00421999999999656"
"1124","0.0","0.0"
"1125","0.0","0.0"
"1126","0.0","0.0"
"1127","0.0","0.0"
"1128","0.0","0.0"
"1129","0.0","0.0"
"1130","0.0","0.0"
"1131","0.0","0.0"
"1132","0.0","0.0"
"1133","0.0","0.0"
"1134","0.0","0.0"
"1135","0.0","0.0"
"1136","0.0","0.0"
"1137","0.0","0.0"
"1138","0.0","0.0"
"1139","0.0","0.0"
"1140","0.0","0.0"
"1141","0.0","0.0"
"1142","0.0","0.0"
"1143","-0.008076666666667029","-0.00469333333333329"
"1144","-0.006461999999997659","-0.005364000000001567"
"1145","-0.010416666666666666","-0.011946666666666772"
"1146","0.0","0.0"
"1147","0.0","0.0"
"1148","0.0","0.0"
"1149","0.0","0.0"
"1150","0.0","0.0"
"1151","0.0","0.0"
"1152","0.0","0.0"
"1153","0.0","0.0"
"1154","0.0","0.0"
"1155","0.0","0.0"
"1156","0.0","0.0"
"1157","0.0","0.0"
"1158","-0.003810000000008529","-0.015299999999996317"
"1159","-0.0047100000000028786","-0.030229999999995982"
"1160","-0.004290000000011673","-0.01075999999999766"
"1161","-0.004959999999996967","-3.5999999999347665E-4"
"1162","-0.02750000000001762","-0.017290000000002692"
"1163","-0.012584000000003925","-0.006969999999998322"
"1164","-0.012753333333331321","-0.011046666666665317"
"1165","-0.010985000000000392","-0.01397333333333369"
"1166","-0.010806428571429803","-0.010670357142857563"
"1167","-0.008158604651164084","-0.006956744186046872"
"1168","0.0","0.0"
"1169","0.0","0.0"
"1170","0.0","0.0"
"1171","0.0","0.0"
"1172","0.0","0.0"
"1173","0.0","0.0"
"1174","0.0","0.0"
