"cell_id","acc_x","acc_y"
"0","-0.009218823529411762","0.015408235294117651"
"1","-0.009926571428570544","0.027017999999999973"
"2","-0.008210746268657315","0.007417164179104475"
"3","-0.0074945161290323106","0.006928924731182785"
"4","-0.007312302158273973","0.005509136690647489"
"5","-0.005968199999999868","0.0055994000000000165"
"6","-0.007019772727272742","0.008424999999999981"
"7","-0.007497209302326054","0.007018837209302313"
"8","-0.012654705882354315","0.006905294117647052"
"9","-0.017868749999997657","0.020534999999999984"
"10","-0.005206666666665545","0.005344999999999896"
"11","-0.003197142857142105","0.006681428571428568"
"12","-0.013763999999999754","0.02647600000000001"
"13","-0.019361428571428467","0.023819999999999984"
"14","-0.019274999999996822","0.026007499999999906"
"15","-0.008497499999999825","0.011984999999999968"
"16","-0.005636250000000231","0.006974999999999898"
"17","-0.002620000000007394","0.008220000000000116"
"18","-0.007522000000001583","0.009971999999999981"
"19","-0.007760000000002283","0.010033333333333191"
"20","-0.005396666666667234","0.002589999999999981"
"21","-0.009039999999998827","8.700000000000374E-4"
"22","-0.014120000000005462","0.0021799999999999597"
"23","-0.011200000000009425","0.010500000000000176"
"24","0.0","0.0"
"25","0.0","0.0"
"26","-0.0018800000000069872","0.007300000000000084"
"27","0.0","0.0"
"28","-0.011385000000000645","0.0022849999999999815"
"29","-0.0033299999999982788","0.017129999999999868"
"30","0.0","0.0"
"31","0.0","0.0"
"32","0.0","0.0"
"33","0.0","0.0"
"34","0.0","0.0"
"35","0.0","0.0"
"36","0.0","0.0"
"37","0.0","0.0"
"38","0.0","0.0"
"39","0.0","0.0"
"40","0.0","0.0"
"41","0.0","0.0"
"42","0.0","0.0"
"43","0.0","0.0"
"44","0.0","0.0"
"45","0.0","0.0"
"46","0.0","0.0"
"47","0.0","0.0"
"48","-0.0024499999999865927","0.009579999999999997"
"49","-0.008644583333331327","0.01622333333333333"
"50","-0.00993523809523879","0.010079047619047654"
"51","-0.014559130434784111","0.015866521739130415"
"52","-0.002524000000006588","0.009490999999999916"
"53","-0.006583333333334866","0.02961333333333327"
"54","-0.011624347826086495","0.012430000000000085"
"55","-0.007302727272728404","0.009329090909090882"
"56","-0.008918124999999777","0.006993437500000067"
"57","-0.008550909090911253","0.009650909090909073"
"58","-0.010544821428571589","0.009263035714285803"
"59","-0.021490952380954213","0.014627619047619143"
"60","-0.017333124999999505","0.019291249999999927"
"61","-0.008107600000000445","0.015773599999999926"
"62","-0.012327692307692654","0.013367692307692431"
"63","-0.010584999999998068","0.0032537499999998887"
"64","-0.020033333333337566","0.008614999999999965"
"65","-0.005313999999997776","0.013287999999999921"
"66","-0.00663333333333248","0.01071555555555559"
"67","-0.007171428571431144","0.01066000000000005"
"68","-0.009624999999999773","0.009787499999999894"
"69","-0.004815714285715192","0.007015714285714379"
"70","-0.015624999999998224","0.005590000000000206"
"71","-0.007810000000003943","0.011363333333333466"
"72","-0.0035749999999978854","0.00884499999999977"
"73","-0.0011200000000073373","0.0019000000000004569"
"74","0.0","0.0"
"75","-0.004449999999991405","0.0049399999999999444"
"76","-0.00659000000000276","0.00562999999999958"
"77","-5.999999999772854E-5","0.01556000000000024"
"78","-0.00441666666666644","0.008789999999999853"
"79","-0.005210000000019477","0.008065000000000433"
"80","-0.04556199999999251","0.29482399999999964"
"81","0.0","0.0"
"82","0.0","0.0"
"83","0.0","0.0"
"84","0.0","0.0"
"85","0.0","0.0"
"86","0.0","0.0"
"87","0.0","0.0"
"88","0.0","0.0"
"89","0.0","0.0"
"90","0.0","0.0"
"91","0.0","0.0"
"92","0.0","0.0"
"93","0.0","0.0"
"94","0.0","0.0"
"95","-0.0035349999999979564","0.007769999999999944"
"96","-0.00624428571428621","0.027022857142856984"
"97","-0.010389999999999233","0.00828249999999997"
"98","-0.010790000000000077","0.06344000000000038"
"99","0.0","0.0"
"100","-0.0052166666666663515","0.010888888888888578"
"101","-0.01786000000000043","0.03226999999999991"
"102","-0.005764666666670237","0.018192666666666777"
"103","-0.008493846153847347","0.011850769230769153"
"104","-0.010948518518517726","0.008402592592592491"
"105","-0.012406896551725053","0.009915344827586197"
"106","-0.0062009836065563435","0.014236229508196757"
"107","-0.008321333333333077","0.007580000000000039"
"108","-0.01813199999999888","0.019534999999999768"
"109","-0.014027222222223301","0.01586722222222228"
"110","-0.008599090909089634","0.012649090909091014"
"111","-0.008224999999998771","0.007078999999999969"
"112","-0.011454545454546534","0.008257272727273007"
"113","-0.006763571428571932","0.010051428571428822"
"114","-0.00861374999999942","0.008922499999999778"
"115","-0.004685714285716054","0.004809285714285532"
"116","-0.014492499999999353","0.0075625000000001386"
"117","-0.01554916666666569","0.012530833333333158"
"118","-0.005115999999998166","0.00467600000000008"
"119","-0.006612000000001217","0.007149999999999856"
"120","-0.005030000000002606","0.010616666666665905"
"121","-0.0041974999999983","0.00494249999999985"
"122","-0.004403999999999542","0.003830000000000133"
"123","-0.006537142857143051","0.006861428571428542"
"124","-0.002329999999993504","0.002720000000000944"
"125","0.0","0.0"
"126","-0.004140000000020905","0.02044000000000068"
"127","-0.004976666666668134","0.004207777777777786"
"128","-0.0042499999999961345","0.004793999999999699"
"129","-0.01944000000000301","0.015536666666666607"
"130","-0.0028800000000046566","0.002254999999999452"
"131","0.0","0.0"
"132","-0.012574999999998226","0.04099999999999904"
"133","0.0","0.0"
"134","-0.004174999999996487","0.007665000000000255"
"135","-0.06604000000000809","0.059004999999999974"
"136","-0.011708666666665597","0.006871333333333081"
"137","-0.010286666666663299","0.0063766666666668454"
"138","0.0","0.0"
"139","0.0","0.0"
"140","0.0","0.0"
"141","0.0","0.0"
"142","-0.0036040000000007845","0.004931999999999803"
"143","-0.006373333333328901","0.01454999999999984"
"144","0.0","0.0"
"145","-0.004069999999999574","0.005044999999999078"
"146","-0.010378333333333304","0.04891666666666694"
"147","-0.006992499999999069","0.005257499999999471"
"148","-0.006212500000000065","0.0037262499999998755"
"149","-0.0070266666666665145","0.009845000000000029"
"150","-0.00977846153846247","0.009843076923076776"
"151","-0.008090952380952794","0.011447142857142672"
"152","-0.013867142857143173","0.012681428571428352"
"153","-0.016906818181819393","0.016514545454545327"
"154","-0.0063873170731710265","0.008538536585365944"
"155","-0.009425000000002395","0.005774999999999927"
"156","-0.005164000000001323","0.0028120000000001256"
"157","-0.0052626923076923","0.004847307692307696"
"158","-0.005788181818181345","0.004609090909091148"
"159","-0.010165000000000646","0.02757999999999905"
"160","-0.0076519999999987934","0.00984000000000087"
"161","-0.0031300000000022976","0.007227499999999942"
"162","-0.005530000000000257","0.007785000000000153"
"163","-0.002213333333334807","0.016006666666667318"
"164","-0.003634999999995614","0.004354999999999887"
"165","-0.004119999999998925","0.005442000000000391"
"166","-0.006970000000002585","0.003969999999999807"
"167","-0.012360000000001037","0.005455000000000432"
"168","0.0","0.0"
"169","-0.01012999999999901","0.0057233333333330805"
"170","-0.007642857142858109","0.006904285714285585"
"171","-0.008736666666668688","0.003566666666666644"
"172","-0.004919999999994928","0.0030050000000003685"
"173","-0.006813750000000951","0.00454124999999983"
"174","-0.003958000000000084","0.006453999999999382"
"175","-0.005771666666667841","0.009766666666666849"
"176","-0.009911428571427905","0.007525714285714104"
"177","0.0","0.0"
"178","-0.0023612500000002256","0.0033237499999999144"
"179","-0.012074210526315866","0.008043684210526118"
"180","-0.015290833333333845","0.00819750000000008"
"181","-0.012919090909092419","0.01067227272727278"
"182","-0.014630769230769567","0.013119615384615368"
"183","-0.006846818181818487","0.009790909090909163"
"184","-0.02923722222222125","0.011810555555555583"
"185","-0.014281249999999801","0.008427500000000032"
"186","-0.7036637179487184","0.27775064102564095"
"187","0.0","0.0"
"188","0.0","0.0"
"189","-0.010061666666665303","0.018550000000000216"
"190","-0.02600000000000069","0.04489499999999946"
"191","-0.01943000000000019","0.022798000000000228"
"192","-0.0357075","0.024687500000000195"
"193","0.0","0.0"
"194","0.0","0.0"
"195","-0.005813333333340627","0.0017966666666661506"
"196","-0.003901666666666396","0.006665000000000365"
"197","-0.02098666666666323","0.041713333333334233"
"198","-0.011612500000000914","0.013950000000000351"
"199","-0.0035899999999884358","0.012650000000000716"
"200","-0.0045250000000010004","0.011660000000000004"
"201","-0.009144444444444844","0.01764555555555584"
"202","-0.006196500000001315","0.007849499999999843"
"203","-0.015306000000001537","0.014077333333333778"
"204","-0.016269999999996898","0.005929999999999769"
"205","-0.01293555555555612","0.014587777777777866"
"206","-0.008465000000002831","0.008185000000000109"
"207","-0.004323999999999728","0.007172000000000267"
"208","-0.006615000000000926","0.004902499999998922"
"209","-0.0035316666666661924","0.009898333333333712"
"210","-0.0024300000000003763","0.005530000000000257"
"211","-0.0026957142857081556","0.004639999999999438"
"212","-8.949999999998681E-4","0.0030849999999995603"
"213","-0.025819999999998622","0.015887500000000276"
"214","0.0","0.0"
"215","-0.002097500000003194","0.0023399999999984544"
"216","-0.004215000000002078","0.004993333333333479"
"217","-0.005994000000001165","0.006090000000000373"
"218","-0.00835833333333369","0.00666833333333372"
"219","-0.006013333333333056","0.005486666666666491"
"220","-0.008548750000001881","0.007054999999999367"
"221","-0.006243809523810671","0.0058338095238096984"
"222","-0.00795333333332593","0.005726666666666584"
"223","0.0","0.0"
"224","-0.010381666666669767","0.011966250000000364"
"225","-0.007608484848484471","0.00938030303030297"
"226","-0.011571666666667745","0.012898888888888769"
"227","-0.007051428571432642","0.007184999999999775"
"228","-0.00519299999999987","0.0068069999999997854"
"229","-0.006734615384616223","0.007199999999999958"
"230","-0.0072203703703705826","0.008074444444444297"
"231","-0.010671632653061142","0.01036693877551002"
"232","-0.010179999999991196","0.004930000000000471"
"233","0.0","0.0"
"234","0.0","0.0"
"235","-0.01238000000000028","0.01701499999999978"
"236","-0.004339999999997536","0.019520000000001"
"237","0.0","0.0"
"238","-0.0022249999999996994","0.027574999999999683"
"239","0.0","0.0"
"240","-0.22871500000001532","0.10766000000000098"
"241","0.0","0.0"
"242","-0.006479285714285814","0.004036428571428782"
"243","0.0","0.0"
"244","-0.014144999999999186","0.023290000000000255"
"245","0.0","0.0"
"246","-0.005055714285710674","0.011471428571428481"
"247","-0.007419166666665866","0.012383333333332747"
"248","-0.007983333333336637","0.01201666666666649"
"249","-0.0037500000000108002","0.017659999999999343"
"250","-0.006147391304348034","0.008751739130434713"
"251","-0.01010428571428536","0.007559999999999535"
"252","-0.007840000000000203","0.009809999999999874"
"253","-0.004110000000004277","9.700000000005815E-4"
"254","-0.0035700000000010355","0.013873333333332738"
"255","-0.013859999999993988","0.011659999999999116"
"256","-0.008103333333335646","0.008359999999999701"
"257","-0.014495000000001923","0.012407500000001015"
"258","-0.009279999999996846","0.020340000000000913"
"259","-0.008045000000002744","0.012840000000000629"
"260","-0.005959999999999965","0.002989999999999604"
"261","0.0","0.0"
"262","-0.0026979999999980466","0.0060939999999988"
"263","-0.0050250000000016115","0.005712499999999565"
"264","-0.005679999999999552","0.004650999999999605"
"265","-0.004911538461538629","0.005953076923077014"
"266","-0.007565882352943146","0.00580705882352942"
"267","-0.004218888888887464","0.003470000000000084"
"268","-0.007924285714282624","0.004773571428571012"
"269","-0.013750666666664794","0.010795333333333209"
"270","-0.011254782608695588","0.010843043478261255"
"271","-0.0075127272727322425","0.007879999999999948"
"272","-0.014071999999999463","0.010596000000000405"
"273","-0.14749756097560895","0.0345487804878049"
"274","-0.010942857142852955","0.014237142857142107"
"275","-0.007904999999999163","0.006588125000000278"
"276","-0.007661578947366515","0.01512842105263196"
"277","-0.010993676470588177","0.008791764705882454"
"278","-0.01038851851852011","0.011604444444444018"
"279","0.0","0.0"
"280","0.0","0.0"
"281","0.0","0.0"
"282","-0.0010400000000032605","0.01226000000000127"
"283","-0.015081666666667326","0.014931666666666565"
"284","-0.024410000000000487","0.011380000000000834"
"285","-0.03281499999999982","0.018624999999999226"
"286","0.0","0.0"
"287","-0.021539999999987458","0.12352000000000274"
"288","-0.002546666666664995","0.004573333333333096"
"289","-0.002359999999995921","4.6999999999997044E-4"
"290","0.0","0.0"
"291","-0.002910000000003521","5.000000000006111E-4"
"292","-0.003478749999999753","0.0038762499999993594"
"293","-0.005119999999998015","0.00797200000000089"
"294","-0.04595166666666609","0.028629999999999416"
"295","-0.009740000000000748","0.016339999999999577"
"296","-0.010759999999990555","0.018209999999999837"
"297","-0.03520999999999989","0.044953333333333546"
"298","-0.008309090909090922","0.007992727272727474"
"299","-0.01910999999999537","0.003369999999999725"
"300","-0.029087500000001043","0.013845000000000773"
"301","-0.005519999999989977","0.0012500000000006395"
"302","-0.003940000000000055","0.009839999999996962"
"303","-0.005899999999989802","4.2000000000186333E-4"
"304","-0.004873333333331213","0.006009999999999849"
"305","-0.009842500000001309","0.00534250000000025"
"306","-8.499999999997954E-4","0.01698999999999984"
"307","-0.009250000000001535","0.00262999999999991"
"308","-0.00935999999999737","0.003524999999998002"
"309","-0.011712857142860855","0.012201428571427744"
"310","0.0","0.0"
"311","-0.006129999999998859","9.500000000013387E-4"
"312","-0.006165999999998917","0.002380000000000848"
"313","-0.004925384615384805","0.003335384615385013"
"314","-0.005334642857143531","0.007505357142857224"
"315","-0.005592500000001739","0.006120833333333353"
"316","-0.0060074999999955025","0.00936875000000037"
"317","-0.012475000000000592","0.007496000000000258"
"318","-0.00731599999999825","0.0116826666666667"
"319","-0.012678823529409508","0.018427647058823906"
"320","-0.007031515151515085","0.008097575757575812"
"321","-0.008146666666668523","0.0064108333333332546"
"322","-0.009599130434781585","0.009591304347826131"
"323","-0.008379655172416671","0.00696310344827583"
"324","-0.009651034482756367","0.014121379310344602"
"325","-0.02217230769230674","0.01262076923076914"
"326","-0.0072724999999985345","0.008363750000000003"
"327","-0.017519999999990432","0.01258000000000159"
"328","0.0","0.0"
"329","-0.005214999999991865","0.011809999999998766"
"330","-0.015183333333333326","0.05108666666666709"
"331","-4.299999999943793E-4","0.013340000000004792"
"332","-0.025886666666667207","0.01847333333333386"
"333","-0.0025999999999992696","0.028299999999997993"
"334","-0.009240000000000137","0.0049100000000024124"
"335","-0.061469999999999914","0.0012899999999991252"
"336","-0.0050200000000000244","0.015710000000000335"
"337","-0.02092000000000027","0.039179999999998216"
"338","-0.01941500000000218","0.014995000000000758"
"339","-0.026200000000003776","0.014982500000000343"
"340","-0.0358799999999988","0.027117499999999684"
"341","-0.021470000000000766","0.04746999999999968"
"342","-0.010672499999998308","0.004864999999998787"
"343","-0.031769999999999854","0.009722500000000078"
"344","-0.015135714285715807","0.020479999999999672"
"345","-0.0122277777777779","0.014963333333333514"
"346","-0.009041999999998041","0.01422200000000089"
"347","-0.008750000000006253","0.0017550000000010613"
"348","-0.04958000000000595","0.03216000000000019"
"349","-0.01569250000000011","0.004402500000000309"
"350","-0.04500000000000881","0.024129999999997764"
"351","-0.0032399999999981333","0.00800999999999874"
"352","-0.0020399999999985616","0.006979999999999246"
"353","-0.005723333333331008","0.0032933333333330004"
"354","-0.028850000000000858","0.013069999999999618"
"355","-0.008389999999998565","0.004718000000000444"
"356","-0.006157500000000482","0.0027149999999989127"
"357","0.0","0.0"
"358","-0.0035700000000010355","0.007466666666667028"
"359","-0.0031850000000055445","0.003919999999999035"
"360","-0.0150499999999969","0.010324999999999918"
"361","-0.8643416000000014","0.2853800000000003"
"362","-0.004941052631580371","0.008015263157894493"
"363","-0.005974444444444455","0.007949999999999631"
"364","-0.008303684210524034","0.007931578947367979"
"365","-0.018357142857144567","0.009714285714285575"
"366","-0.0051483333333356045","0.009301666666666542"
"367","-0.006721428571429909","0.010516428571428538"
"368","-0.012356400000002168","0.011451200000000128"
"369","-0.012869285714285996","0.009282142857143048"
"370","-0.030584999999991425","0.028507499999999464"
"371","-0.007137499999997132","0.009837500000000166"
"372","-0.01490249999999449","0.023909999999998988"
"373","-0.022020000000007183","0.01029999999999968"
"374","-0.0413733333333397","0.011179999999998932"
"375","-0.02321999999999491","0.07360999999999862"
"376","-0.00825000000001097","0.04234999999999722"
"377","-0.027509999999999923","0.07948999999999984"
"378","-0.0061449999999969585","0.024322500000001135"
"379","-0.007840000000001623","0.012669999999999959"
"380","-0.11472499999999997","0.0321949999999962"
"381","0.0","0.0"
"382","0.0","0.0"
"383","0.0","0.0"
"384","-0.0034333333333348057","0.004819999999999898"
"385","-0.009840000000000515","1.1000000000294108E-4"
"386","-0.033354999999994916","0.013834999999999376"
"387","0.0","0.0"
"388","0.0","0.0"
"389","0.0","0.0"
"390","-0.007979999999996323","0.01021500000000053"
"391","-0.021393333333333056","0.011191111111110411"
"392","-0.014911333333333113","0.01247533333333332"
"393","-0.009320666666666947","0.014606666666666731"
"394","-0.004807500000000076","0.003580000000002137"
"395","-0.039299999999997226","0.0010099999999972908"
"396","0.0","0.0"
"397","-0.0026500000000027057","0.008079999999999643"
"398","-0.0054800000000057025","0.0016200000000026193"
"399","-0.0021549999999983527","0.018810000000000215"
"400","-0.002262499999998724","0.006287500000000001"
"401","-0.005052500000001459","0.002295000000000158"
"402","-0.0018849999999979161","0.0060549999999999216"
"403","-5.099999999984561E-4","1.0999999999583565E-4"
"404","-0.0027680000000032123","0.004639999999999844"
"405","-0.009880000000002553","0.002392500000000908"
"406","-0.0049019999999998735","0.014271999999998286"
"407","-0.005188333333331722","0.006603333333333221"
"408","-0.002693714285711784","0.004087142857142924"
"409","-0.005763999999999214","0.020122666666667163"
"410","-0.01082124999999401","0.01801500000000078"
"411","-0.013761818181821055","0.022968181818181742"
"412","-0.004518749999999017","0.00732124999999928"
"413","-0.015855714285713078","0.018610476190476094"
"414","-0.016234848484847412","0.016385757575757682"
"415","-0.014127659574469023","0.013678723404255338"
"416","-0.01117472222222007","0.010546666666666779"
"417","-0.010810869565221622","0.005348260869565404"
"418","-0.017170588235292345","0.011977058823528645"
"419","-0.26030434782608614","0.3120752173913043"
"420","-0.014082500000004217","0.012230000000001962"
"421","0.0","0.0"
"422","-0.025986666666668157","0.07379666666666769"
"423","-0.02999250000000586","0.02072500000000055"
"424","-0.008959999999999857","0.011220000000001562"
"425","0.0","0.0"
"426","-0.013775000000006088","0.01769249999999989"
"427","-0.25359000000000265","0.1465299999999985"
"428","-0.00575000000000081","0.030699999999999505"
"429","0.0","0.0"
"430","-0.018329999999991742","0.008565000000000822"
"431","-0.03665999999999414","0.08595000000000397"
"432","-0.03128999999999493","0.024899999999998812"
"433","-0.004100000000001103","0.0080600000000004"
"434","-0.009110000000003282","0.013940000000001618"
"435","-0.010769999999997282","4.7999999999959186E-4"
"436","-0.003355000000000885","0.00613999999999848"
"437","-0.012952000000003494","0.012826000000000448"
"438","-0.007333076923076421","0.005248461538461522"
"439","-0.0062019354838720306","0.00373193548387145"
"440","-0.7657703921568629","0.19787137254901935"
"441","-0.01189586206896575","0.016374137931034236"
"442","-0.02569249999999812","0.005379999999997942"
"443","-0.00727437500000061","0.0057349999999991574"
"444","-0.00922000000000267","0.00435000000000052"
"445","-0.003274999999995032","0.002100000000000435"
"446","-0.0030879999999982033","0.004590000000000316"
"447","0.0","0.0"
"448","0.0","0.0"
"449","-0.00519333333333627","0.0065866666666662965"
"450","-0.0015350000000005082","0.002394999999999925"
"451","-0.003564999999998264","0.005890000000000839"
"452","-0.0074424999999997965","0.00956999999999919"
"453","-0.0201450000000003","0.006586250000000238"
"454","-0.03524000000000349","0.03378249999999827"
"455","-0.008234444444444952","0.006944444444445234"
"456","-0.006077499999998774","0.013691666666666436"
"457","-0.0038776923076911684","0.0022099999999994134"
"458","-0.01250818181818209","0.011941818181817932"
"459","-0.01068777777777383","0.012732222222222589"
"460","-0.012882857142861732","0.00590428571428652"
"461","-0.007554999999997846","0.007589000000001178"
"462","-0.015420000000003955","0.012439999999999531"
"463","-0.01758555555555732","0.0072488888888896"
"464","-0.009856363636365793","0.011564545454544954"
"465","-0.04764000000000124","0.009435384615385144"
"466","-0.012565000000002158","0.014808333333332868"
"467","-0.015092499999997955","0.017147500000000093"
"468","-0.029370000000000118","0.07164666666666501"
"469","-0.03528000000001441","0.06441999999999837"
"470","-0.13652499999999845","0.07188999999999801"
"471","0.0","0.0"
"472","-0.11547000000000018","0.063329999999997"
"473","0.0","0.0"
"474","-0.008814999999998463","0.01117500000000149"
"475","-0.004170000000000229","0.020520000000001204"
"476","0.0","0.0"
"477","-0.026989999999999625","0.015624999999998224"
"478","0.0","0.0"
"479","-0.011780000000001678","0.008615000000000705"
"480","-0.007079999999998421","0.013049999999996231"
"481","-0.007020000000000692","0.03959000000000401"
"482","-0.06713999999999487","0.06663999999999959"
"483","-0.013834285714285752","0.004907142857141825"
"484","-0.015547499999999381","0.010139999999998484"
"485","0.0","0.0"
"486","-0.012649999999997164","0.021494999999998043"
"487","-0.008033684210526965","0.01152157894736885"
"488","-0.6058870000000034","0.38667399999999963"
"489","-0.013866666666667034","0.012360666666667679"
"490","-0.6592040909090929","0.00736363636363632"
"491","-0.0041044444444453786","0.0034077777777770596"
"492","-0.005221333333334144","0.006564666666666596"
"493","-0.007329166666668385","0.010199166666666018"
"494","-0.028392500000002485","0.049460000000000726"
"495","-0.023279999999999745","0.04631000000000007"
"496","-0.005918571428573216","0.007274285714285915"
"497","-0.007026666666668291","0.005429999999999306"
"498","-0.00428000000000021","0.0044516666666674825"
"499","-0.0036000000000017606","0.0038757142857132215"
"500","-0.0012999999999969702","0.004999999999999005"
"501","-0.007100000000008322","1.699999999971169E-4"
"502","0.0","0.0"
"503","-0.003915555555557852","0.006717037037036567"
"504","-0.006440999999999519","0.007334999999999425"
"505","-0.006381428571432123","0.0057985714285706536"
"506","-0.0068223809523803285","0.009434761904760844"
"507","-0.012733225806452846","0.01652129032258035"
"508","-0.013281999999999527","0.012044999999999462"
"509","-0.024200000000002383","0.010030000000000105"
"510","-0.03500636363636612","0.018109999999999748"
"511","-0.010452727272724938","0.010890000000000167"
"512","-0.044863999999995484","0.005295999999999879"
"513","-0.015782000000001517","0.014651999999999532"
"514","-0.05975500000000267","0.0494299999999992"
"515","0.0","0.0"
"516","-0.029843333333336847","0.05350999999999928"
"517","-0.030880000000003127","0.030240000000000933"
"518","-0.025090000000000057","0.02877499999999955"
"519","0.0","0.0"
"520","0.0","0.0"
"521","-0.018656666666657884","0.020366666666667754"
"522","-0.01530499999999968","0.01705000000000112"
"523","0.0","0.0"
"524","-0.038130000000005104","0.022249999999997883"
"525","0.0","0.0"
"526","0.0","0.0"
"527","0.0","0.0"
"528","-0.02923200000000179","0.007735999999999877"
"529","-0.06705000000000301","0.05420333333333242"
"530","-0.001300000000000523","0.0038100000000014234"
"531","0.0","0.0"
"532","0.0","0.0"
"533","-0.009349999999997749","0.024625000000002117"
"534","-0.005744545454545341","0.009560909090908868"
"535","-0.008260000000002776","0.007858000000000231"
"536","-0.014039999999997832","0.00939499999999871"
"537","-0.006840000000000401","0.011626666666664676"
"538","-0.009596000000001936","0.004482000000000141"
"539","0.0","0.0"
"540","-3.700000000002035E-4","0.0024550000000012062"
"541","-7.066666666683356E-4","0.006569999999999965"
"542","-0.005482222222219946","0.006607777777776707"
"543","-0.0046357142857138866","0.010142857142857358"
"544","-0.00589500000000065","0.004815000000002456"
"545","-0.009224999999998929","0.005830000000000446"
"546","-0.002418333333332375","0.004764999999998428"
"547","-0.036764999999995496","0.006160000000001276"
"548","-0.003648000000001635","0.01267466666666716"
"549","-0.0047749999999974575","0.002709999999998066"
"550","-0.005710000000001055","0.0063432142857144614"
"551","-0.009419999999998652","0.008145000000000024"
"552","-0.006432000000003768","0.0031519999999993333"
"553","-0.00847500000000095","0.010140769230768744"
"554","-0.01188799999999901","0.006822000000001082"
"555","-0.0121226315789501","0.00979052631578943"
"556","-0.003973333333336863","0.003378333333333335"
"557","0.0","0.0"
"558","-0.016515999999998598","0.008644000000000318"
"559","-0.027460000000001372","0.03810499999999983"
"560","-0.07530499999999662","0.029254999999999143"
"561","-0.034939999999991755","0.001339999999995456"
"562","-0.019430000000014047","7.200000000011642E-4"
"563","-0.11487000000001046","0.06445000000000078"
"564","-0.008659999999996634","0.007840000000002808"
"565","0.0","0.0"
"566","0.0","0.0"
"567","0.0","0.0"
"568","-0.00446999999999953","0.0020699999999997942"
"569","-0.0193749999999957","0.010030000000002204"
"570","0.0","0.0"
"571","-0.03087200000000223","4.420000000003199E-4"
"572","0.0","0.0"
"573","0.0","0.0"
"574","-0.008399999999980423","0.0043199999999998795"
"575","-0.07099000000000899","0.009389999999999787"
"576","0.0","0.0"
"577","0.0","0.0"
"578","0.0","0.0"
"579","0.0","0.0"
"580","-0.016429999999999723","0.010749999999998039"
"581","-0.004773333333333104","-0.0017946666666669368"
"582","-0.00809714285714185","0.0035214285714302612"
"583","-0.008419333333334104","0.0023759999999995785"
"584","-0.008177777777776087","-0.0023355555555559545"
"585","-0.008553750000001395","-0.0022279166666658115"
"586","-0.005193750000000996","-0.0018062500000004533"
"587","-0.004165714285717976","0.0034199999999994395"
"588","-0.0020879999999991127","-0.00192999999999941"
"589","-0.008265000000002706","-0.0012283333333330166"
"590","-0.006180000000000518","0.0032800000000001717"
"591","-0.004939999999997724","-0.015489999999999782"
"592","-0.010176666666666279","0.0016266666666690337"
"593","-0.04837250000000015","-0.03823624999999975"
"594","-0.004986666666664992","-0.0030799999999994534"
"595","-0.008659999999999791","-0.00625888888888879"
"596","-0.0029869999999988296","-0.004129999999999967"
"597","-0.008828666666665678","-0.0038460000000000603"
"598","-0.006793000000000405","-0.006080000000000041"
"599","-0.012263333333327372","0.010320000000000107"
"600","-0.013627500000001902","-0.008847499999999306"
"601","-0.01361555555555564","-0.007200000000000194"
"602","-0.008683749999999435","-0.005438749999999715"
"603","0.0","0.0"
"604","-0.015319999999997927","0.009660000000000224"
"605","-0.016010000000015623","-0.014834999999997933"
"606","-0.015304999999997904","-0.007913749999998831"
"607","0.0","0.0"
"608","-0.030627999999998677","-0.021687999999999617"
"609","-0.013580000000004588","0.005630000000000024"
"610","0.0","0.0"
"611","-0.006959999999999411","-0.036029999999996676"
"612","-0.015304999999999902","-0.003784999999998817"
"613","-0.06207000000000029","-0.19144999999999612"
"614","0.0","0.0"
"615","0.0","0.0"
"616","-9.999999999621423E-6","-3.552713678800501E-15"
"617","0.0","0.0"
"618","-0.012060000000001736","-0.009287499999999227"
"619","-0.0071566666666740275","-0.008606666666667687"
"620","-0.0035900000000026466","-0.008409999999997808"
"621","0.0","0.0"
"622","0.0","0.0"
"623","0.0","0.0"
"624","0.0","0.0"
"625","-0.012709999999998445","-8.999999999979025E-4"
"626","-0.005668333333335458","-0.006926666666666748"
"627","-0.004671764705883126","-0.0035952941176463703"
"628","-0.0040792307692318385","-0.006233076923077345"
"629","0.0","0.0"
"630","-0.9556311111111108","-0.11190222222222108"
"631","-0.014228333333330548","-0.011416666666667888"
"632","-0.007055000000001144","-0.005421666666668656"
"633","-0.017654999999997756","-0.005079999999999529"
"634","-0.0034300000000015984","-0.018599999999999284"
"635","-0.012123333333332672","-0.008196666666667815"
"636","0.0","0.0"
"637","-0.00689999999999813","-0.0013450000000041484"
"638","-0.016987499999999045","-0.013382499999997854"
"639","-0.0028450000000006526","-0.004850000000001131"
"640","-0.003329999999994726","-0.004759999999999209"
"641","-0.005000000000002558","-0.005657499999998095"
"642","-0.01246071428571278","-0.021275714285714033"
"643","-0.013364800000001651","-0.011860399999999487"
"644","-0.006428260869567922","-0.005776956521739615"
"645","-0.006609117647060547","-0.009405000000000264"
"646","-0.010743888888887752","-0.009632222222221919"
"647","-0.008980000000001888","-0.013487777777777963"
"648","-0.012669375000005978","-0.018740624999999733"
"649","-0.008424999999995464","-0.009814999999999685"
"650","0.0","0.0"
"651","-0.045009999999997774","-0.025719999999998855"
"652","-0.10785000000000622","-0.05925999999999654"
"653","-0.014450000000010732","-0.005419999999997316"
"654","-0.01860666666666096","-0.015963333333334145"
"655","-0.014767999999995141","-0.02620399999999847"
"656","-0.03254333333333174","-0.011130000000001417"
"657","-0.17092999999999847","-0.04014500000000076"
"658","-0.007814999999998268","-0.0025049999999993133"
"659","-0.00395000000000012","-0.013929999999998444"
"660","0.0","0.0"
"661","0.0","0.0"
"662","0.0","0.0"
"663","-0.0011700000000018917","-0.020850000000002922"
"664","-0.019660000000001787","-0.011590000000001766"
"665","-0.0066275000000004525","-0.01122000000000023"
"666","0.0","0.0"
"667","0.0","0.0"
"668","0.0","0.0"
"669","0.0","0.0"
"670","0.0","0.0"
"671","-0.00439249999999447","-0.0017425000000006463"
"672","-0.00555599999999643","-0.011379999999999058"
"673","-0.0032881818181803883","-0.004049999999999766"
"674","-1.4023499999999984","-0.3891859999999994"
"675","-0.0053374285714290134","-0.0056037142857141885"
"676","-0.004273043478260364","-0.005245652173913407"
"677","-0.010782499999999829","-0.008307999999999715"
"678","-0.04429400000000072","-0.019999999999999928"
"679","-0.004819999999998714","-0.00880750000000008"
"680","-0.003973333333332126","-0.004373333333335931"
"681","-0.004295000000002602","-4.7499999999978115E-4"
"682","-0.004622857142859768","-0.010849999999999329"
"683","-0.007395000000002483","-0.020484999999998976"
"684","-0.009475000000001899","-0.007813333333331821"
"685","-0.021230000000002747","-0.013759999999997774"
"686","-0.0020633333333321957","-0.005840000000000363"
"687","-0.007443333333336947","-0.017796666666666756"
"688","-0.004716666666664556","-0.005096666666665565"
"689","-0.019213333333333478","-0.023006666666667088"
"690","-0.4133788235294125","-0.07507705882352955"
"691","-0.003362666666666314","-0.006672666666666061"
"692","-0.007985333333335613","-0.0132626666666674"
"693","-0.006709047619050271","-0.011916666666666555"
"694","-0.008399999999999122","-0.013926842105262469"
"695","-0.011260000000000048","-0.008086000000000482"
"696","-0.009515714285711852","-0.005988571428571581"
"697","-0.01276333333332976","-0.003663333333333204"
"698","-0.04862400000000093","-0.023091999999998336"
"699","-0.009830000000003261","-0.009749999999999185"
"700","-0.024850000000000705","-0.005329999999998947"
"701","-0.0143460000000033","-0.00883399999999881"
"702","-0.007806000000007885","-0.008096000000000459"
"703","-0.03673099999999892","-0.01987399999999937"
"704","-0.054379999999999505","-0.038876666666665706"
"705","-0.002419999999997452","-0.01262499999999811"
"706","-0.00906000000000029","-0.0373750000000026"
"707","-0.02778666666667018","-0.017446666666669348"
"708","0.0","0.0"
"709","0.0","0.0"
"710","-0.013946666666673954","-0.010730000000001164"
"711","-0.018559999999993693","-0.018643333333330975"
"712","-0.005105714285714872","-0.004574285714286118"
"713","0.0","0.0"
"714","0.0","0.0"
"715","0.0","0.0"
"716","0.0","0.0"
"717","-0.002700000000000813","-0.001760000000000872"
"718","0.0","0.0"
"719","0.0","0.0"
"720","-0.008259999999998158","-0.012054999999998373"
"721","-0.15929666666666856","-0.1844399999999986"
"722","-0.15554062500000065","-0.06508156249999941"
"723","-0.5033900000000007","-0.7147702777777774"
"724","-0.006775499999998757","-0.008675500000000547"
"725","-0.004472222222223839","-0.004996666666666982"
"726","-0.00850999999999876","-0.011510000000000057"
"727","-0.0029133333333296227","-0.00490999999999886"
"728","-0.0011900000000011346","-0.00816666666666658"
"729","-0.006551999999997804","-0.005265999999998883"
"730","-0.0055966666666644","-0.007764999999999726"
"731","-0.0073662499999995745","-0.0364337499999996"
"732","-0.022463999999999373","-0.01235200000000063"
"733","-0.009339999999998128","-0.005475000000000563"
"734","-0.006719999999999023","-0.004746666666666973"
"735","-0.005257499999995474","-0.007810000000003647"
"736","-0.013870000000002847","-0.009924000000000177"
"737","-0.45154766666666696","-0.40263516666666666"
"738","-0.01024500000000117","-0.01167583333333333"
"739","-0.010300434782609698","-0.0062456521739123125"
"740","-0.007469999999990762","-0.001960000000000406"
"741","-0.011408518518518075","-0.016859259259259178"
"742","-0.006068333333331566","-0.00791500000000056"
"743","-0.010779999999999745","-0.005971999999999866"
"744","-0.01638999999999905","-0.00542846153846154"
"745","-0.010232500000000755","-0.008574999999999852"
"746","-0.013672000000002526","-0.006391999999999598"
"747","-0.019963749999998726","-0.006640000000000423"
"748","-0.010674999999999102","-0.009786666666668017"
"749","-0.0026666666666699257","-0.01326333333333333"
"750","-0.03757285714285631","-0.07469285714285741"
"751","-0.030626842105262068","-0.03603315789473658"
"752","-0.004353333333329694","-0.00547000000000016"
"753","-0.031049999999993805","-0.05926666666666591"
"754","-0.03571636363636153","-0.016662727272726583"
"755","-0.0060247058823505095","-0.012578823529410369"
"756","-0.004976666666660436","-0.010126666666666987"
"757","-0.00730571428571279","-0.011390000000000202"
"758","-0.011459999999999285","-0.018860000000000692"
"759","-0.008139999999999148","-0.0028199999999998226"
"760","-0.010503333333331236","-0.007020000000001876"
"761","0.0","0.0"
"762","0.0","0.0"
"763","0.0","0.0"
"764","0.0","0.0"
"765","0.0","0.0"
"766","0.0","0.0"
"767","-0.010621666666664234","-0.009446666666665493"
"768","-0.019363333333333326","-0.012563333333334962"
"769","0.0","0.0"
"770","-0.0033710526315792245","-0.003938157894736125"
"771","-0.002851666666666771","-0.004315416666666867"
"772","-0.014126111111111013","-0.007598333333332856"
"773","-0.013040000000003715","-0.005069999999996355"
"774","-0.008523529411765112","-0.006218823529412067"
"775","-0.005491818181817946","-0.003287727272726829"
"776","0.0","0.0"
"777","-0.007525000000004667","-0.0030250000000044963"
"778","-0.011773333333337632","-0.005819999999999936"
"779","-0.016279999999997113","-0.008143333333331762"
"780","-0.01898000000000053","-0.01359600000000114"
"781","-0.020848749999998972","-0.0658375000000011"
"782","-0.010675999999999419","-0.009980000000000188"
"783","-0.009282857142857941","-0.009569999999997034"
"784","-0.09132428571428822","-0.15666857142857132"
"785","-0.3808447727272744","-0.19437727272727326"
"786","-0.008517500000003508","-0.009862500000000551"
"787","-0.010180000000001854","-0.009146249999998801"
"788","-0.013942857142860175","-0.014953571428571979"
"789","-0.31219607142857136","-0.4692196428571441"
"790","-0.011877499999997099","-0.013402499999999762"
"791","-0.014831111111113337","-0.011232222222223717"
"792","-0.010941428571429344","-0.00922142857142882"
"793","-0.0411011111111116","-0.0170122222222228"
"794","-0.024543999999997367","-0.015083999999998455"
"795","-0.04294909090909016","-0.015434545454548304"
"796","-0.008006176470587016","-0.008442352941176397"
"797","-0.020010000000000618","-0.020079999999999744"
"798","-0.009126249999996006","-0.012124999999999275"
"799","-0.0064449999999922625","-0.012945000000001983"
"800","0.0","0.0"
"801","0.0","0.0"
"802","0.0","0.0"
"803","-0.007949999999998644","-0.012550000000004502"
"804","-0.007902500000003698","-0.013650000000000162"
"805","-0.0031499999999979877","-0.0035949999999971283"
"806","0.0","0.0"
"807","0.0","0.0"
"808","-0.0073150000000055115","-0.007954999999999046"
"809","-0.003145000000003506","-0.001410000000003464"
"810","0.0","0.0"
"811","0.0","0.0"
"812","-7.300000000043383E-4","-0.010470000000005086"
"813","-0.0014049999999983243","-0.014445000000005592"
"814","-0.0068480000000015195","-0.0164420000000014"
"815","-0.008474285714285148","-0.008241428571430731"
"816","-0.003783333333335174","-0.005791666666666491"
"817","-0.003365000000002283","-0.014792499999998654"
"818","-0.006448947368423543","-0.009704210526317519"
"819","-0.009074000000000144","-0.004843333333334953"
"820","-0.004042499999998839","-0.003754999999999953"
"821","-0.004899999999992133","-0.005590000000005091"
"822","-0.00385249999999715","-0.006372500000003001"
"823","0.0","0.0"
"824","-0.0014650000000031582","-0.01188499999999948"
"825","-0.004945000000002864","-0.006649999999996936"
"826","0.0","0.0"
"827","-0.006778333333335477","-0.012111666666665855"
"828","-0.008199999999997468","-0.009986666666667551"
"829","-0.01173800000000019","-0.007928666666665644"
"830","-0.008347777777777942","-0.005002222222224696"
"831","-0.01121282051282016","-0.009233333333334315"
"832","-0.004745000000006883","-0.014206249999999976"
"833","-0.0069531578947344555","-0.007748947368419579"
"834","-0.007242999999999711","-0.0046000000000020694"
"835","-0.006788823529414939","-0.011792941176472612"
"836","-0.013802727272727628","-0.004600000000000906"
"837","0.0","0.0"
"838","-0.014161739130433103","-0.007818260869565193"
"839","-0.012022608695651155","-0.0048139130434795225"
"840","-0.011554615384610018","-0.01644615384615405"
"841","-0.01913911764705912","-0.015159705882352584"
"842","-0.012971935483869122","-0.0119700000000001"
"843","-0.006555740740741574","-0.009080000000000733"
"844","-0.07058000000002096","-0.16025999999999385"
"845","0.0","0.0"
"846","-0.0023999999999944066","-0.015429999999994948"
"847","0.0","0.0"
"848","-0.008440000000001367","-0.016311428571432276"
"849","-0.012839999999999444","-0.045749999999995815"
"850","0.0","0.0"
"851","0.0","0.0"
"852","-0.016669999999990637","-0.008550000000006719"
"853","-0.008749999999999147","-0.02285999999999433"
"854","0.0","0.0"
"855","-0.0021599999999892816","-0.012570000000003745"
"856","0.0","0.0"
"857","-0.011944999999997208","-0.0169150000000009"
"858","-0.0029900000000064133","-0.003956666666664906"
"859","-0.005457999999998719","-0.007485999999997261"
"860","-0.0077300000000093405","-0.006869999999999266"
"861","-0.006271428571429689","-0.008314285714287653"
"862","-0.00751750000000051","-0.004515000000001379"
"863","0.0","0.0"
"864","-0.006566666666669126","-0.016586666666664012"
"865","-0.016460833333332776","-0.014712500000001091"
"866","-0.0015700000000045122","-0.0016599999999975523"
"867","0.0","0.0"
"868","-0.0031399999999948136","-0.0028800000000046566"
"869","0.0","0.0"
"870","0.0","0.0"
"871","-4.199999999983106E-4","-0.008029999999997983"
"872","-0.008829999999996119","-0.009410000000006136"
"873","-0.005671111111112737","-0.006420000000000117"
"874","-0.005502857142855889","-0.008622857142857552"
"875","-0.005491250000000392","-0.004937500000001371"
"876","-0.005372499999998226","-0.00844750000000083"
"877","-0.008019999999997177","-0.008268333333329991"
"878","-0.00835750000000246","-0.006527499999997133"
"879","-0.010201250000001494","-0.0077624999999996724"
"880","-0.007779166666666744","-0.01018000000000067"
"881","-0.007490666666663514","-0.0050506666666677805"
"882","-0.006927272727274023","-0.009278181818180025"
"883","-0.013098888888889191","-0.021275555555553813"
"884","-0.012844999999996295","-0.012423333333331973"
"885","-0.012875000000003448","-0.007981666666666283"
"886","-0.011056315789474525","-0.03667315789473946"
"887","-0.007488199999999381","-0.006667400000000327"
"888","-0.005214199999997789","-0.005774399999999815"
"889","-0.04661500000000155","-0.353085555555555"
"890","-0.006582075471699967","-0.008164339622641244"
"891","-0.0068292857142852525","-0.006410000000000439"
"892","0.0","0.0"
"893","-0.0017749999999965016","-0.008904999999995056"
"894","-0.005314999999997738","-0.006741249999999255"
"895","-0.008329999999986626","-0.022490000000004784"
"896","-0.05348999999999959","-0.08192999999999628"
"897","-0.03379000000000021","-0.03197250000000018"
"898","-0.03400499999999962","-0.03804500000000033"
"899","-0.007080000000001974","-0.020383333333332605"
"900","-2.4999999999941735E-4","-0.035749999999993065"
"901","0.0","0.0"
"902","-0.001840000000001396","-0.014580000000002258"
"903","-0.0015766666666697422","-0.0012933333333341086"
"904","-0.004925000000001845","-0.013481666666664912"
"905","-0.007067999999998164","-0.010665000000000901"
"906","-0.003610000000004732","-0.0043710000000011465"
"907","-0.0050033333333339884","-0.005099999999997588"
"908","-0.012171428571428626","-0.021071428571428692"
"909","-0.0071100000000024165","-0.00621888888888833"
"910","-0.01932800000000299","-0.016149999999996112"
"911","-0.01571666666666971","-0.018783333333333967"
"912","-0.011173333333334293","-0.014699999999997715"
"913","-0.007567999999999131","-0.0053860000000000244"
"914","-0.0020550000000021384","-0.001515000000004818"
"915","-0.003340000000001453","-0.0019550000000023715"
"916","-0.007130000000003633","-0.005409999999997694"
"917","-0.005577499999999347","-0.0030649999999994293"
"918","-0.006064000000000647","-0.00903600000000182"
"919","-0.006801111111111406","-0.009167777777780058"
"920","-0.0016399999999947568","-0.0033633333333327187"
"921","-0.0035125000000002515","-0.007818749999998431"
"922","-0.0060166666666650786","-0.005136666666662866"
"923","-0.00696999999999548","-0.001089999999997815"
"924","-0.013525000000001342","-0.00220499999999646"
"925","-0.010170000000000456","-0.006267499999998094"
"926","-0.0073836666666664994","-0.006582333333333897"
"927","-0.006321111111110629","-0.011534444444442392"
"928","-0.006510000000000621","-0.010163181818181564"
"929","-0.007099473684212698","-0.014377368421053398"
"930","-0.02671647058823326","-0.01093470588235381"
"931","-0.01113103448275963","-0.01492999999999991"
"932","-0.010192962962961958","-0.012046296296297762"
"933","-0.006632352941177627","-0.007319999999999575"
"934","-0.007057714285713246","-0.009084857142857622"
"935","-0.0037454838709670237","-0.007766129032258703"
"936","-0.00666534883720954","-0.010847441860465415"
"937","-0.006928333333335009","-0.009565333333332404"
"938","-0.007346315789470437","-0.004811578947368389"
"939","0.0","0.0"
"940","-0.00750000000000739","-0.003710000000005209"
"941","-0.002746666666666823","-0.008676666666663854"
"942","0.0","0.0"
"943","0.0","0.0"
"944","0.0","0.0"
"945","-0.0651799999999998","-0.02283999999999864"
"946","-0.02658750000000376","-0.04162500000000158"
"947","0.0","0.0"
"948","-0.006149999999998101","-0.026219999999995025"
"949","-0.0018699999999967076","-0.005139999999997258"
"950","0.0","0.0"
"951","-0.016004999999999825","-0.0050900000000027035"
"952","-0.002272857142855348","-0.004104285714283102"
"953","-0.006526666666668272","-0.004860000000003121"
"954","-0.015625833333332412","-0.012852499999998676"
"955","-0.004473703703704212","-0.003931111111110186"
"956","-0.004987272727272537","-0.005870909090909684"
"957","-0.0026628571428588543","-0.004054285714285503"
"958","-0.03253249999999852","-0.053402499999995356"
"959","-0.01755666666666795","-0.027651111111111168"
"960","-0.008435999999998245","-0.004932999999999766"
"961","-0.003413999999999362","-0.003553999999998325"
"962","-0.010722499999998192","-0.00391000000000119"
"963","-0.0028849999999955855","-0.006870000000002818"
"964","-0.004610000000003112","-3.750000000053433E-4"
"965","-0.007603333333333258","-0.0084433333333358"
"966","-0.017411999999997364","-0.012894000000004268"
"967","-0.0071314285714245374","-0.008385714285712506"
"968","-0.005931000000001063","-0.006774000000000768"
"969","-0.008945000000000055","-0.007073333333332006"
"970","-0.004082499999999101","-0.00544124999999962"
"971","-0.005621666666666414","-0.007026666666665922"
"972","-0.009108000000001937","-0.007300999999999646"
"973","-0.010461249999998756","-0.0067787500000005"
"974","-0.006275555555556404","-0.0067388888888883815"
"975","-0.009161111111108906","-0.009788888888887785"
"976","-0.010816285714284796","-0.010327428571428397"
"977","-0.007405333333331517","-0.012842000000000079"
"978","-0.009196538461539424","-0.008343076923077812"
"979","-0.01344157894737021","-0.014253157894737075"
"980","-0.008499166666667909","-0.010896666666665075"
"981","-0.010520000000000047","-0.016015428571428663"
"982","-0.00976483870967803","-0.009865483870967636"
"983","-0.006232377622377674","-0.010033426573426946"
"984","-0.004148461538463266","-0.012619999999999666"
"985","-0.0046050000000027085","-0.00495333333333529"
"986","0.0","0.0"
"987","-0.006857142857143117","-0.0035628571428582795"
"988","-0.006806666666657672","-0.010906666666668249"
"989","-0.0016799999999999038","-0.018410000000002924"
"990","0.0","0.0"
"991","0.0","0.0"
"992","0.0","0.0"
"993","-0.019256666666660927","-0.031871666666669775"
"994","-0.003989999999998754","-0.004153333333330049"
"995","-0.020075000000005616","-0.0011299999999998533"
"996","-0.01344777777777395","-0.00782222222222215"
"997","-0.013040000000005847","-0.009660000000000935"
"998","-0.004772222222225903","-0.006635555555556196"
"999","-0.01137250000000023","-0.01171999999999862"
"1000","-0.007277692307692263","-0.011619999999999537"
"1001","-0.021069999999999568","-0.009386000000000649"
"1002","-0.013111250000001462","-0.0061349999999995575"
"1003","-0.002878571428572079","-0.003043571428572684"
"1004","-0.004873333333338318","-0.0028733333333335054"
"1005","-0.0035679999999999267","-0.007074000000000069"
"1006","-0.009809999999999283","-0.005106666666665187"
"1007","0.0","0.0"
"1008","0.0","0.0"
"1009","0.0","0.0"
"1010","-0.0034650000000020498","-0.013674999999999216"
"1011","-0.00345999999999691","-0.017200000000002547"
"1012","-0.008379999999995391","-0.006520000000001858"
"1013","-0.011180000000003076","-0.006929999999996994"
"1014","-0.003479999999996153","-9.999999999941167E-4"
"1015","-0.01710166666666642","-0.0053766666666644385"
"1016","-0.013357499999997025","-0.008948749999996508"
"1017","-0.006772142857143544","-0.007287142857142064"
"1018","-0.008946153846155132","-0.006803076923077356"
"1019","-0.005054166666666878","-0.006920833333332747"
"1020","-0.005321875000000809","-0.009683124999998238"
"1021","-0.009848000000006607","-0.0068700000000013976"
"1022","-0.010897777777781274","-0.010891111111110123"
"1023","-0.00371419354838699","-0.004470000000000046"
"1024","-0.00832384615384613","-0.008077692307693405"
"1025","-0.005030666666665222","-0.007513333333331692"
"1026","-0.015162352941175909","-0.010981764705881858"
"1027","-0.019572857142859692","-0.015435714285714093"
"1028","-0.019499999999998963","-0.00910375000000041"
"1029","-0.007029374999999227","-0.007967916666666852"
"1030","-0.007070499999998958","-0.008874999999999389"
"1031","-0.0047436842105241794","-0.008345263157893313"
"1032","-0.0062697297297291555","-0.012891081081080736"
"1033","0.0","0.0"
"1034","-0.00989500000000021","-0.00391000000000119"
"1035","-0.003179999999986194","-0.01740999999999815"
"1036","-0.003268000000000981","-0.011043999999998277"
"1037","-0.0074300000000005655","-0.0077866666666703095"
"1038","-0.0023999999999997357","-0.012620000000000667"
"1039","-0.0029000000000003467","-0.01093400000000031"
"1040","-0.005048749999997826","-0.009251249999998379"
"1041","-0.005743750000001491","-0.01259750000000004"
"1042","-0.01056764705882074","-0.005461764705883521"
"1043","-0.004708888888888257","-0.008558888888888956"
"1044","-0.01145357142857303","-0.015297857142855824"
"1045","-0.008133157894736903","-0.014238421052631248"
"1046","-0.010704999999999742","-0.007401666666667713"
"1047","-0.010819999999998942","-0.010894999999990773"
"1048","-0.042258571428570084","-0.016021428571428027"
"1049","-0.008740000000000237","-0.002816000000001395"
"1050","-0.006954000000000349","-0.011899999999999977"
"1051","-0.00622476190476039","-0.012938571428570694"
"1052","-5.399999999937677E-4","-0.0017899999999997362"
"1053","-0.001959999999996853","-4.99999999945544E-5"
"1054","-0.007374999999992582","-0.025304999999999467"
"1055","-0.004019999999997026","-0.016600000000003945"
"1056","-0.004559999999997899","-0.011929999999999552"
"1057","-0.002240000000000464","-0.013469999999998095"
"1058","-0.0030000000000036664","-0.009574999999998113"
"1059","-0.008897500000001557","-0.011097499999998206"
"1060","-0.008940000000002613","-0.02133999999999503"
"1061","-0.0032099999999957163","-0.01206000000000292"
"1062","-0.012680000000003133","-0.01177000000000561"
"1063","-0.012523333333336476","-0.01813999999999775"
"1064","-0.006259999999993937","-0.004059999999999064"
"1065","-0.0075940000000002785","-0.005700000000001637"
"1066","-0.012278000000006273","-0.00947800000000143"
"1067","0.0","0.0"
"1068","0.0","0.0"
"1069","0.0","0.0"
"1070","-0.007474999999999454","-0.010189999999997923"
"1071","-0.002549999999999386","-0.02173999999999765"
"1072","-0.004023333333331418","-0.016133333333333628"
"1073","0.0","0.0"
"1074","0.0","0.0"
"1075","0.0","0.0"
"1076","0.0","0.0"
"1077","0.0","0.0"
"1078","0.0","0.0"
"1079","-0.019549999999998846","-0.04679499999999592"
"1080","0.0","0.0"
"1081","0.0","0.0"
"1082","-0.008766666666667157","-0.009928888888888012"
"1083","-0.006089687500000579","-0.0071546875000008114"
"1084","0.0","0.0"
"1085","-0.0036599999999999966","-0.012119999999992359"
"1086","-0.007091428571432142","-0.00706714285714278"
"1087","-0.009393181818181728","-0.005546818181816671"
"1088","-0.01723812500000088","-0.010547500000001264"
"1089","-0.1298441935483886","-0.03815741935483839"
"1090","-0.004845714285710504","-0.006718571428572366"
"1091","-0.0046353846153854","-0.005552307692307925"
"1092","-0.0053240909090907255","-0.006494545454545369"
"1093","-8.949999999856573E-4","-0.01438999999999524"
"1094","-0.0070699999999987995","-2.1500000000074238E-4"
"1095","-0.005291666666667065","-0.008343333333333666"
"1096","-0.01045000000000229","-0.006494999999993922"
"1097","-7.599999999996498E-4","-0.004240000000002908"
"1098","-0.01094999999999402","-0.004930000000001655"
"1099","-7.600000000067553E-4","-0.00408000000000186"
"1100","-0.00923999999999836","-0.007939999999997838"
"1101","-0.0022599999999997067","-0.006933333333333754"
"1102","-0.005733333333329445","-0.0071533333333301625"
"1103","-0.009396666666665018","-0.007443333333336947"
"1104","0.0","0.0"
"1105","0.0","0.0"
"1106","-0.018010000000003856","-2.7000000000043656E-4"
"1107","-0.011490000000000222","-0.011457500000000564"
"1108","-0.007259999999998712","-0.004829999999998336"
"1109","-0.0024099999999975807","-0.006890000000005614"
"1110","0.0","0.0"
"1111","0.0","0.0"
"1112","0.0","0.0"
"1113","-0.014593333333332717","-0.011483333333333215"
"1114","-0.0090849999999989","-0.005985000000000795"
"1115","0.0","0.0"
"1116","0.0","0.0"
"1117","0.0","0.0"
"1118","0.0","0.0"
"1119","0.0","0.0"
"1120","0.0","0.0"
"1121","0.0","0.0"
"1122","0.0","0.0"
"1123","0.0","0.0"
"1124","0.0","0.0"
"1125","0.0","0.0"
"1126","0.0","0.0"
"1127","0.0","0.0"
"1128","0.0","0.0"
"1129","-0.006713750000000074","-0.0067485937500002535"
"1130","-0.007947941176471312","-0.004657941176470317"
"1131","-0.00441492537313369","-0.007491940298508158"
"1132","-0.005044705882349627","-0.008497058823530612"
"1133","-0.006743500000000413","-0.00737100000000126"
"1134","-0.004496956521739262","-0.007513913043476474"
"1135","-0.004243888888890169","-0.009001111111109437"
"1136","-0.010755937500000812","-0.010063125000000728"
"1137","-0.008989591836734631","-0.006482448979591056"
"1138","-0.008570000000000189","-0.009214374999998665"
"1139","-0.007826923076921916","-0.007425384615384718"
"1140","-0.012431176470586577","-0.006921764705882794"
"1141","-0.004863333333332183","-0.005123333333334775"
"1142","-0.010678000000000054","-0.008108000000002846"
"1143","-0.023539999999997008","-0.008046666666665203"
"1144","-0.008343333333336034","-0.027020000000000266"
"1145","-0.033528333333334125","-0.03760333333333558"
"1146","-0.00592500000000129","-0.008452500000002416"
"1147","-0.014598000000000865","-0.012675999999999021"
"1148","-0.009045999999996468","-0.0035040000000009287"
"1149","-0.018463333333334237","-0.01506666666666471"
"1150","-0.009349666666666204","-0.008993333333333216"
"1151","0.0","0.0"
"1152","-0.007353333333334433","-0.003109999999999502"
"1153","-0.008599999999999497","-0.0070574999999983845"
"1154","-0.011289999999997727","-0.011663333333331138"
"1155","-2.9999999995311555E-5","-0.0011399999999994748"
"1156","-0.01653999999999674","-0.02679000000000542"
"1157","-0.013024999999998954","-0.017745000000005007"
"1158","-0.01792999999999978","-3.1999999999499096E-4"
"1159","-0.017496666666663902","-0.023293333333337312"
"1160","0.0","0.0"
"1161","-0.011500000000002805","-0.014110000000002287"
"1162","-0.00993625000000442","-0.014179999999999637"
"1163","-0.05796589743589792","-0.6050802564102563"
"1164","0.0","0.0"
"1165","0.0","0.0"
"1166","0.0","0.0"
"1167","0.0","0.0"
"1168","0.0","0.0"
"1169","0.0","0.0"
"1170","0.0","0.0"
"1171","0.0","0.0"
"1172","0.0","0.0"
"1173","0.0","0.0"
"1174","0.0","0.0"
