"cell_id","acc_x","acc_y"
"0","0.0","0.0"
"1","0.0","0.0"
"2","0.0","0.0"
"3","0.0","0.0"
"4","0.0","0.0"
"5","0.0","0.0"
"6","0.0","0.0"
"7","0.0","0.0"
"8","0.0","0.0"
"9","0.0","0.0"
"10","0.0","0.0"
"11","0.0","0.0"
"12","0.0","0.0"
"13","0.0","0.0"
"14","0.0","0.0"
"15","0.0","0.0"
"16","0.0","0.0"
"17","0.0","0.0"
"18","0.0","0.0"
"19","0.0","0.0"
"20","0.0","0.0"
"21","0.0","0.0"
"22","0.0","0.0"
"23","0.0","0.0"
"24","0.0","0.0"
"25","0.0","0.0"
"26","0.0","0.0"
"27","0.0","0.0"
"28","0.0","0.0"
"29","0.0","0.0"
"30","0.0","0.0"
"31","0.0","0.0"
"32","0.0","0.0"
"33","0.0","0.0"
"34","0.031014999999999304","0.018130999999999963"
"35","0.015476756756756176","0.01015540540540541"
"36","0.028774687500003004","0.015339375000000032"
"37","0.22320785714285754","0.035445142857142856"
"38","0.012644666666663322","0.007707999999999967"
"39","0.011634444444443606","0.008207777777777826"
"40","0.006229259259259097","0.007797407407407395"
"41","0.0043511111111121815","0.014783333333333296"
"42","0.006354782608694805","0.016908260869565206"
"43","0.0055857777777772654","0.008694444444444425"
"44","0.00562999999999805","0.011070000000000024"
"45","0.0","0.0"
"46","0.0","0.0"
"47","0.0","0.0"
"48","0.0","0.0"
"49","0.0","0.0"
"50","0.0","0.0"
"51","0.0033722222222236395","0.004837777777777842"
"52","0.005581874999998071","0.004669375000000031"
"53","0.0","0.0"
"54","0.0","0.0"
"55","0.0","0.0"
"56","0.0","0.0"
"57","0.0","0.0"
"58","0.0","0.0"
"59","0.0","0.0"
"60","0.0","0.0"
"61","0.0","0.0"
"62","0.0","0.0"
"63","0.0","0.0"
"64","0.0","0.0"
"65","0.0","0.0"
"66","0.0","0.0"
"67","0.0","0.0"
"68","0.0","0.0"
"69","0.0","0.0"
"70","0.0","0.0"
"71","0.0","0.0"
"72","0.0","0.0"
"73","0.02259999999998996","0.014819999999998945"
"74","0.012950000000000017","0.0028000000000003578"
"75","0.0","0.0"
"76","0.00833000000000439","0.010824999999999863"
"77","0.01949000000000467","0.029565000000000063"
"78","0.007058571428572691","0.016862857142857353"
"79","0.01355607843137275","0.015306666666666614"
"80","0.011926666666672267","0.009066666666666704"
"81","0.007731249999999079","0.014222500000000082"
"82","0.007153333333331741","0.014728888888888767"
"83","0.012735483870964648","0.02751967741935481"
"84","0.0066828169014080474","0.009509718309859135"
"85","0.011118461538461806","0.017674000000000013"
"86","0.007939375000002746","0.008460000000000037"
"87","0.011283478260868106","0.022173043478260913"
"88","0.015181176470587796","0.018678823529411828"
"89","0.011960312500000292","0.014395312500000014"
"90","0.0029899999999969396","0.007416153846153854"
"91","0.06484999999999275","0.06434000000000006"
"92","0.00565499999999809","0.009063888888888883"
"93","0.0021866666666691494","0.004576666666666747"
"94","0.0","0.0"
"95","0.0","0.0"
"96","0.018264000000000103","0.007590000000000074"
"97","0.013725454545454678","0.015786363636363824"
"98","0.011390869565217737","0.015688695652173935"
"99","0.012290000000000134","0.022189999999998378"
"100","0.004700000000001735","0.006641428571428624"
"101","0.006296666666671058","0.0059033333333333715"
"102","0.0","0.0"
"103","0.0","0.0"
"104","0.0","0.0"
"105","0.0","0.0"
"106","0.0","0.0"
"107","0.0","0.0"
"108","0.0010833333333314006","0.0023933333333330253"
"109","0.00797333333332991","0.012686666666666882"
"110","0.005925000000004843","0.01615000000000011"
"111","0.0035300000000025498","0.005786666666666977"
"112","0.005630000000000734","0.007315999999999434"
"113","0.0038325000000014597","0.004815000000000236"
"114","0.005015000000000214","0.007725000000000204"
"115","0.0","0.0"
"116","7.799999999988927E-4","1.600000000010482E-4"
"117","0.0","0.0"
"118","0.00782000000000238","0.01251999999999942"
"119","0.007520000000001303","0.008038749999999872"
"120","0.004188571428571208","0.007261428571428625"
"121","0.006016666666667447","0.013250000000000503"
"122","0.004823333333331921","0.005759999999999839"
"123","0.006064000000000647","0.006105999999999945"
"124","0.0013966666666670828","0.018416666666666377"
"125","0.002932499999996452","0.002662500000000012"
"126","0.014329999999996327","0.11748333333333368"
"127","0.02820333333332788","0.035936666666666874"
"128","0.019693636363634616","0.022308181818181536"
"129","0.017158985507245792","0.018465942028985566"
"130","0.012193250000000688","0.012753749999999897"
"131","0.011668684210526317","0.014059999999999984"
"132","0.017093499999997874","0.03689499999999986"
"133","0.011064999999996772","0.014946250000000272"
"134","0.015946153846155216","0.01699307692307678"
"135","0.008155000000002133","0.01569999999999938"
"136","0.003260000000011587","0.025319999999999787"
"137","0.0","0.0"
"138","0.0","0.0"
"139","0.01908666666667121","0.023169999999999764"
"140","0.0045357142857125965","0.005974285714285773"
"141","0.0","0.0"
"142","0.0","0.0"
"143","0.0","0.0"
"144","0.0","0.0"
"145","0.008886666666666562","0.016518333333333857"
"146","0.026910000000002817","0.023567272727272822"
"147","0.01937249999999935","0.009327499999999489"
"148","0.012121249999998085","0.011861250000000156"
"149","0.0","0.0"
"150","0.010550000000002058","0.018256666666666515"
"151","0.01282916666666889","0.009820000000000162"
"152","0.014070512820512686","0.00985717948717942"
"153","0.011915217391302605","0.01825391304347833"
"154","0.015181034482758583","0.008709655172413793"
"155","0.007209411764703897","0.006450000000000015"
"156","0.004915714285714452","0.00396428571428561"
"157","0.006699999999995043","8.099999999986451E-4"
"158","0.0028700000000014825","0.007289999999999797"
"159","0.002575000000000216","0.013002499999999806"
"160","0.010339999999997573","0.0075150000000001604"
"161","0.0097114285714304","0.006118571428571608"
"162","0.0044790909090889645","0.005218181818181849"
"163","0.006452727272725864","0.004503636363636396"
"164","0.005990000000000606","0.008581666666666266"
"165","0.008619999999998148","0.0037233333333333007"
"166","0.005454000000000292","0.007247999999999699"
"167","0.013210000000004385","0.012029999999999319"
"168","0.004975999999999203","0.013122000000000255"
"169","0.011803333333334129","0.010998333333333369"
"170","0.012490000000000457","0.016430000000000018"
"171","0.013421538461538663","0.01349769230769243"
"172","0.012341875000001501","0.021901875000000126"
"173","0.014872499999994737","0.023663750000000316"
"174","0.017669199999999136","0.02063840000000006"
"175","0.02261240740740578","0.018331481481481473"
"176","0.01692749999999806","0.01672395833333336"
"177","0.01982150000000047","0.017940999999999895"
"178","0.008344000000000544","0.01237866666666676"
"179","0.06789800000000526","0.061260000000000224"
"180","0.018902499999999378","0.016026666666666484"
"181","0.008134285714281273","0.008495714285714051"
"182","0.010353333333327441","0.01741333333333343"
"183","0.008674999999999026","0.016350000000000087"
"184","1.7000000001132776E-4","0.00945000000000018"
"185","0.0","0.0"
"186","0.015964999999994234","0.028160000000000185"
"187","0.004869999999996821","0.02041999999999966"
"188","0.02468000000000165","0.020377727272727485"
"189","0.029157500000003722","0.012342499999999923"
"190","0.023092500000000626","0.004437500000000316"
"191","0.002302500000000318","0.0023200000000000998"
"192","0.011025999999999314","0.009027999999999991"
"193","0.00554374999999796","0.009101250000000283"
"194","0.016400909090908945","0.012076818181818232"
"195","0.014008666666667184","0.010628222222222285"
"196","0.009910000000000635","0.009494800000000083"
"197","0.01930178571428609","0.010330357142857143"
"198","0.010183333333330494","0.011117142857143068"
"199","0.012614210526318795","0.014878421052631702"
"200","0.003968474576271789","0.006188813559322249"
"201","1.1739864705882361","0.27119705882352946"
"202","0.01250022222222174","0.011376444444444545"
"203","0.007834666666666597","0.008256666666666608"
"204","0.010802222222220652","0.01339666666666655"
"205","0.005964444444444439","0.003990000000000136"
"206","0.005424705882353213","0.005412352941176166"
"207","0.006095555555553744","0.001514444444444744"
"208","0.004274999999999096","0.004098999999999542"
"209","0.0047511111111120385","0.005239999999999985"
"210","0.008692857142857438","0.004759999999999971"
"211","0.005656249999998586","0.005073749999999988"
"212","0.001094999999999402","0.005705000000000737"
"213","8.099999999942042E-4","0.0035500000000006082"
"214","0.010525000000003004","0.005037499999998918"
"215","0.008385000000004084","0.006304999999999339"
"216","0.01349666666666612","0.0176433333333339"
"217","0.009164814814815363","0.008102592592592498"
"218","0.022812727272727915","0.016912727272727614"
"219","0.016942000000000235","0.011583999999999862"
"220","0.02553923076922943","0.029206153846154086"
"221","0.010158421052633128","0.009983157894736285"
"222","0.033728333333332076","0.031787222222222015"
"223","0.022923333333331977","0.025651111111111194"
"224","0.01622999999999782","0.021542222222222226"
"225","0.012062727272724384","0.019319999999999723"
"226","0.03564363636362926","0.02383272727272717"
"227","0.018729999999997915","0.003089999999998483"
"228","0.0016099999999994452","0.003169999999999007"
"229","0.008579999999994925","0.006369999999999543"
"230","0.01686333333333323","0.01100000000000012"
"231","0.021065000000007217","0.032404999999999795"
"232","0.011846666666656347","0.008300000000002564"
"233","0.016843333333336357","0.039683333333332925"
"234","0.0","0.0"
"235","0.0","0.0"
"236","0.007150000000002242","0.005215238095238172"
"237","0.005394074074073786","0.003573333333333519"
"238","0.004567000000000232","0.004373249999999862"
"239","0.004882051282050517","0.006615128205128192"
"240","0.004906249999999636","0.005596428571428502"
"241","0.010307014925372698","0.010360298507462302"
"242","0.01076249999999801","0.009489999999999998"
"243","0.006995454545454552","0.009825454545454481"
"244","0.01998181818182426","0.015270909090909253"
"245","0.012541538461536725","0.008061538461538804"
"246","0.013057777777779438","0.011407777777777758"
"247","0.023294999999998844","0.01904718749999995"
"248","0.012719523809524262","0.014381904761904454"
"249","0.0119122222222185","0.009427777777777714"
"250","0.008685555555555564","0.012786666666666946"
"251","0.013464166666667646","0.009789999999999743"
"252","0.017394000000001596","0.006664000000000669"
"253","0.015960000000003305","0.012141666666666199"
"254","0.00527499999999866","0.00987333333333229"
"255","0.005073846153847556","0.007773846153846182"
"256","0.006061111111112578","0.012932222222222518"
"257","0.015358000000001936","0.009647999999999967"
"258","7.399999999933016E-4","0.0020999999999986585"
"259","0.006870000000001042","0.007120000000000459"
"260","0.004600000000001121","0.003233333333331719"
"261","0.009370000000001514","0.015586363636363808"
"262","0.009016428571429052","0.008885714285714386"
"263","0.01109571428571497","0.015327142857142715"
"264","0.018483333333331114","0.009716666666666521"
"265","0.007357142857141444","0.00970142857142875"
"266","0.014982142857143341","0.018207142857142675"
"267","0.009216363636360954","0.012978181818181979"
"268","0.017191785714285146","0.0189260714285715"
"269","0.034692500000005566","0.020444999999999602"
"270","0.05063750000000056","0.08610000000000007"
"271","0.02068666666666748","0.02202333333333269"
"272","0.01780000000000013","0.010250000000000219"
"273","0.05047727272727152","0.03515090909090934"
"274","0.047730000000007065","0.05568000000000062"
"275","0.0","0.0"
"276","0.020072000000000402","0.015833999999999904"
"277","0.037015000000003795","0.021735000000000504"
"278","0.009083000000002528","0.015033999999999992"
"279","0.010048333333330106","0.014328333333333276"
"280","0.0","0.0"
"281","0.0","0.0"
"282","0.017719375000006643","0.004458750000001066"
"283","0.01399333333332938","0.011125000000000421"
"284","0.013039999999988172","0.01131500000000063"
"285","0.015595789473684101","0.012193684210526263"
"286","0.007780566037735701","0.007318113207547201"
"287","0.013936229508197987","0.007748196721311449"
"288","0.00914620000000113","0.007451199999999893"
"289","0.0074434782608698265","0.00922826086956518"
"290","0.020376400000000815","0.03214800000000025"
"291","0.1509134883720932","0.03972697674418599"
"292","0.0058790909090908694","0.011203636363636445"
"293","0.006521428571429529","0.011789047619047685"
"294","0.006616363636369274","0.007099090909091514"
"295","0.36003285714285915","0.477307142857143"
"296","0.007545217391303847","0.008666086956521669"
"297","0.006175999999999959","0.010359333333333371"
"298","0.0076681818181828405","0.01043272727272715"
"299","0.021932999999999224","0.009067000000000292"
"300","0.004759999999999802","0.00555222222222223"
"301","0.014689999999998489","0.009457777777777763"
"302","0.004284999999999428","0.0042874999999993335"
"303","0.007251428571428116","0.0034328571428571104"
"304","0.0013666666666670342","0.007623333333333093"
"305","0.002827500000000427","0.010542500000000121"
"306","0.007171000000000305","0.014617000000000324"
"307","0.004931666666664114","0.008593333333333378"
"308","0.0044416666666684534","0.0045550000000001605"
"309","0.011404999999996335","0.018614999999998716"
"310","0.009110000000003282","0.022475000000001355"
"311","0.009316428571428352","0.01039857142857148"
"312","0.01083258064516136","0.012002258064516155"
"313","0.010139473684209801","0.015560000000000218"
"314","0.06862910714285686","0.1633437500000001"
"315","0.017040000000008604","0.010550000000000281"
"316","0.014677999999992152","0.007573999999999614"
"317","0.011848333333335384","0.01816833333333327"
"318","0.016039999999999093","0.024429999999998248"
"319","0.015128333333327268","0.0037766666666666873"
"320","0.018052222222226848","0.03556888888888901"
"321","0.017880000000005225","0.028190000000000028"
"322","0.005260000000006926","0.013389999999999347"
"323","0.011213333333335148","0.004093333333334097"
"324","0.01697999999998956","0.025284999999998448"
"325","0.012631428571426438","0.015498571428571393"
"326","0.00990999999999076","0.007130000000001857"
"327","0.005989999999997053","0.026079999999996772"
"328","0.0","0.0"
"329","0.0","0.0"
"330","0.04262071428571242","0.3441099999999998"
"331","0.20353190476190447","0.35256190476190463"
"332","0.009863584905660938","0.010386792452830012"
"333","0.009563243243244009","0.011760000000000083"
"334","0.016759743589741805","0.013766410256410292"
"335","0.01641101694915208","0.0199333898305084"
"336","0.009077254901960744","0.010981568627450877"
"337","0.0143713636363637","0.009527727272727337"
"338","0.014236470588237182","0.005555294117647194"
"339","0.008755333333334885","0.010151333333333313"
"340","0.0076751612903234534","0.008965161290322637"
"341","0.011099999999995447","0.01272249999999997"
"342","0.013185517241379967","0.014121724137930612"
"343","0.010667777777780114","0.017675555555555396"
"344","0.016499999999998256","0.016236666666666406"
"345","0.004973333333334533","0.007289999999999945"
"346","0.01331071428571511","0.006361428571428692"
"347","0.007185555555553138","0.011491111111111292"
"348","0.008766666666668735","0.0026633333333325737"
"349","0.004421666666669211","0.006846666666667407"
"350","0.0034816666666669014","0.007810000000000095"
"351","0.003917499999998834","0.004380833333333278"
"352","0.0062075000000003655","0.01337749999999982"
"353","0.004285999999997614","0.006522000000000005"
"354","0.0","0.0"
"355","0.013690000000000424","0.008585000000000065"
"356","0.0","0.0"
"357","0.0071229999999999905","0.008936999999999884"
"358","0.0077235999999996354","0.008629599999999727"
"359","0.021976800000000764","0.025726399999999858"
"360","0.012279230769228579","0.01212076923076935"
"361","0.023893921568628684","0.4918562745098038"
"362","0.012974705882350978","0.009682352941176475"
"363","0.009125555555554696","0.007804444444444256"
"364","0.010502500000004744","0.00978125000000074"
"365","0.012400909090906319","0.00889636363636338"
"366","0.011729285714283983","0.012740000000000038"
"367","0.016600588235293652","0.016625294117646808"
"368","0.003900000000001569","0.002640000000001308"
"369","0.0","0.0"
"370","0.0","0.0"
"371","0.002439999999996768","0.0021545454545453587"
"372","0.004075000000000273","0.006089999999999485"
"373","0.013544999999997032","0.030807499999999877"
"374","0.0","0.0"
"375","0.01928999999999803","0.020990000000001174"
"376","0.0","0.0"
"377","0.011787499999996953","0.00586999999999982"
"378","0.012347586206895977","0.015220689655172651"
"379","0.008382799999999477","0.011106533333333436"
"380","0.38663764705882336","0.3738508823529408"
"381","0.01396103448275791","0.006551379310344946"
"382","0.01402920000000094","0.010548000000000144"
"383","0.020844666666665644","0.01396933333333313"
"384","0.01183062500000126","0.009039687499999893"
"385","0.012605555555554796","0.011257777777777318"
"386","0.010450833333334112","0.00858916666666687"
"387","0.007769999999999706","0.012367142857143116"
"388","0.006044444444442989","0.009210740740740275"
"389","0.008590833333332585","0.010008333333333397"
"390","0.010350555555554605","0.01391444444444486"
"391","1.3066857142857136","0.3491099999999997"
"392","0.006228333333332614","0.006393333333333177"
"393","0.00725999999999658","0.008590000000000231"
"394","0.008638571428572763","0.009807142857142586"
"395","0.007673571428572501","0.007424285714284805"
"396","0.005720624999998591","0.007068749999999957"
"397","0.013923333333333213","0.019649999999999796"
"398","0.0057199999999989854","0.006763333333333084"
"399","0.00889692307692076","0.005649230769231158"
"400","0.007296666666666359","0.008602222222221437"
"401","0.007874999999999707","0.008966666666665605"
"402","0.012551428571426422","0.012062857142857755"
"403","0.005748888888889938","0.01076555555555577"
"404","0.015495555555553153","0.011471111111112245"
"405","0.004706000000001609","0.009269000000000105"
"406","0.00662884615384594","0.008236923076924021"
"407","0.007297640449439002","0.00984213483146083"
"408","0.013808571428571762","0.018123809523809747"
"409","0.7071694736842075","0.014698421052631784"
"410","0.0062599999999989105","0.013915999999999684"
"411","0.014185000000000513","0.012349000000000743"
"412","0.006628461538462296","0.008998461538461119"
"413","0.0076550000000003915","0.005541363636363544"
"414","0.007360666666665831","0.007338666666666427"
"415","0.018634999999999735","0.0687900000000008"
"416","0.0069700000000011645","0.014531999999999812"
"417","0.006293333333327193","0.04876000000000028"
"418","0.007480999999995674","0.01265200000000064"
"419","0.019000000000005457","0.04990999999999879"
"420","0.0021099999999876218","0.029419999999998225"
"421","0.014597500000000707","0.02773500000000073"
"422","0.0080600000000004","0.02533499999999922"
"423","0.018989999999995177","0.005984999999999019"
"424","0.011837500000002166","0.018107500000001053"
"425","0.01904100000000056","0.02006000000000062"
"426","0.015330952380950846","0.013435952380952779"
"427","0.015413249999999313","0.014962250000000222"
"428","0.0144213333333339","0.015886666666666827"
"429","0.004064285714286646","0.0050228571428562975"
"430","0.009554666666665431","0.007764666666666879"
"431","0.015946842105260605","0.011220526315789707"
"432","0.012098999999998129","0.007999999999999296"
"433","0.20056960000000187","0.1043740000000001"
"434","0.007150909090911609","0.008983636363636355"
"435","0.009434999999999149","0.009888000000001184"
"436","0.021670416666667098","0.026944583333334382"
"437","0.46127306666666623","0.2978685333333338"
"438","0.009300769230770757","0.007980769230768531"
"439","0.01038666666666583","0.008924444444444882"
"440","0.010759999999999239","0.018877777777777598"
"441","0.004860769230769135","0.013928461538461816"
"442","0.005583076923078723","0.00990692307692215"
"443","0.004652413793102994","0.0062951724137934265"
"444","0.003069999999999595","0.008297999999999917"
"445","0.005114999999999981","0.006821428571429168"
"446","0.005358750000000079","0.005497500000000155"
"447","0.009929999999995687","0.006914000000000442"
"448","0.007415714285714208","0.010784285714286515"
"449","0.005044999999999078","0.006964999999999222"
"450","0.004542222222221583","0.012416666666667927"
"451","0.013905999999998642","0.00894999999999797"
"452","0.006508947368421646","0.004833157894736554"
"453","0.17658510638297892","0.07757957446808524"
"454","0.007888823529411748","0.008381470588235644"
"455","0.00789666666666654","0.009165555555556142"
"456","0.009715454545453316","0.009319090909090473"
"457","0.01219428571428389","0.009125714285714182"
"458","0.013348571428567522","0.007518571428572025"
"459","0.026421999999999456","0.010188000000000131"
"460","0.0036142857142899792","0.006621428571429127"
"461","0.009495000000001141","0.017870000000000275"
"462","0.004075000000007378","0.018505000000001104"
"463","0.02947200000000123","0.021916000000000935"
"464","0.02452499999999702","0.024055000000000604"
"465","0.011035000000004421","0.004945000000000495"
"466","0.011219999999992427","0.01729857142857075"
"467","0.001981999999998152","0.00679800000000057"
"468","0.009857499999991859","0.007522500000001209"
"469","0.0","0.0"
"470","0.07680333333333067","0.009413333333333421"
"471","0.0034699999999929787","0.05474999999999497"
"472","0.01136236842105308","0.015648947368420707"
"473","0.011387368421051878","0.009262631578947677"
"474","0.023795454545454692","0.018819090909090404"
"475","0.008406666666665983","0.0023644444444441445"
"476","0.010742105263158476","0.012212105263157799"
"477","0.6892844444444434","0.20753888888888838"
"478","0.01288333333333084","0.018534999999998785"
"479","0.0045985714285724354","0.0049185714285714865"
"480","0.00959909090908924","0.005827272727272389"
"481","0.01196421052631498","0.00808999999999964"
"482","0.011315454545454108","0.015213636363636703"
"483","0.010932307692307849","0.024705769230769246"
"484","0.007578095238095949","0.01463428571428524"
"485","0.010003571428572602","0.008409285714286088"
"486","0.009018421052631783","0.008737368421053006"
"487","0.02240499999999912","0.0022150000000014103"
"488","0.007045000000001522","0.0047725000000005124"
"489","0.004472999999997995","0.0036280000000001424"
"490","0.006380000000000052","0.0019999999999988916"
"491","0.003922857142854801","0.009774285714285671"
"492","0.003405714285715281","0.009376428571428366"
"493","0.005937999999999022","0.008603999999998991"
"494","0.005545000000002649","0.01437833333333316"
"495","0.005751333333334053","0.011902666666667096"
"496","0.005592400000000736","0.004893600000000475"
"497","0.010246000000000777","0.012161000000001466"
"498","0.009067499999999265","0.008906666666666396"
"499","0.31925518518518486","0.24084111111111073"
"500","0.008439347826087901","0.006387826086957359"
"501","0.012078378378377786","0.008555135135135419"
"502","0.00611777777777631","0.008701666666667643"
"503","0.0049216666666656765","0.007346666666666242"
"504","0.006072000000000913","0.006245199999999045"
"505","0.016292500000000487","0.01815125000000073"
"506","0.015143333333335186","0.011918888888889652"
"507","0.010224999999991269","0.005979999999997432"
"508","0.0","0.0"
"509","0.005990000000011264","3.9999999999906777E-4"
"510","0.0041199999999896875","0.008630000000001026"
"511","0.0","0.0"
"512","0.018050000000016553","0.0855300000000021"
"513","0.04114999999999976","0.05966428571428496"
"514","0.08570700000000783","0.09732400000000005"
"515","0.01196249999999921","0.004174999999999152"
"516","0.059799999999995634","0.09100000000000108"
"517","0.0","0.0"
"518","0.017039999999994393","0.04327999999999754"
"519","0.011050769230767908","0.022795384615385217"
"520","0.013664545454546519","0.036856363636364554"
"521","0.03386333333333447","0.02335250000000026"
"522","0.011337560975609727","0.020682439024389803"
"523","0.012043750000001685","0.011833124999999889"
"524","0.012205161290323119","0.007482580645161202"
"525","0.008185000000003365","0.007362222222222788"
"526","0.010407884615384947","0.008516923076922577"
"527","0.0942230612244887","0.012996734693877032"
"528","0.014545625000001339","0.02544000000000013"
"529","0.008941428571429811","0.0063342857142853655"
"530","0.017010769230765277","0.012034615384615348"
"531","0.22094249999999915","0.5113929166666661"
"532","0.0048020312499996165","0.005168906249999938"
"533","0.009693846153845916","0.011472307692307627"
"534","0.010159999999991953","0.032709999999999795"
"535","0.003875000000000147","0.012909999999999755"
"536","0.012244999999998285","0.007932500000000786"
"537","0.014670000000000627","0.014739999999999753"
"538","0.005090399999999988","0.004889600000000058"
"539","0.005763000000001383","0.006063500000000488"
"540","0.005337499999999551","0.008170625000000209"
"541","0.007343750000000426","0.012181249999999366"
"542","0.007821904761905717","0.011549523809523893"
"543","0.007502499999999597","0.007419166666666459"
"544","0.016111176470588743","0.00896588235294072"
"545","0.022644615384616776","0.01759653846153884"
"546","0.011488571428570774","0.01394261904761879"
"547","0.006561999999999557","0.008314999999999984"
"548","0.6744215384615385","0.564882051282051"
"549","0.006489999999999441","0.007707777777777696"
"550","0.04706424242424134","0.5406593939393938"
"551","0.02049000000000234","0.017797499999999467"
"552","0.04265384615384759","0.04452461538461568"
"553","0.007339999999992131","0.01025249999999911"
"554","0.010989999999996567","0.01102857142857161"
"555","0.009719999999987294","0.0022999999999981924"
"556","0.005249999999989541","0.00344000000000122"
"557","0.0039000000000157797","0.002449999999999619"
"558","0.005614999999998815","0.003474999999999895"
"559","0.0","0.0"
"560","0.03658624999999738","0.07539874999999885"
"561","0.06559285714285627","0.056944285714287446"
"562","0.022460000000002367","0.05480999999999803"
"563","0.022150000000003445","0.01974000000000231"
"564","0.005972499999997938","0.005257500000000803"
"565","0.011911162790698197","4.8302325581392664E-4"
"566","0.02894699999999719","0.00837000000000021"
"567","0.007808125000000998","-0.021461249999999543"
"568","0.21702424242424156","-0.6039384848484847"
"569","0.01179235294117695","-0.003057647058823655"
"570","0.00959999999999908","-7.461538461529271E-4"
"571","0.01117999999999908","0.0026124999999992404"
"572","0.015242592592593055","0.00869222222222145"
"573","0.008707659574466946","-0.0013299999999997652"
"574","0.010385833333333169","6.275000000003731E-4"
"575","0.013059230769231843","-0.012262307692308055"
"576","0.019835999999997255","-0.0013560000000005345"
"577","0.01003230769230612","0.0020869230769222304"
"578","0.01293105263157856","0.005777368421052873"
"579","0.005537272727273678","-8.127272727275102E-4"
"580","0.006953928571428847","-0.003685357142856814"
"581","0.0051382499999999","-0.0016667499999999612"
"582","0.007857727272726127","-0.0018318181818182727"
"583","0.008275263157893531","-0.0019147368421056996"
"584","0.00571568181818207","3.3613636363615353E-4"
"585","0.00249818181818252","-8.909090909097598E-4"
"586","0.005563333333332328","5.1666666665302806E-5"
"587","0.004773999999996193","-0.0012720000000008725"
"588","0.009372000000000468","0.00486399999999918"
"589","0.00563176470588231","0.0026382352941170363"
"590","0.008865000000000123","7.319999999992888E-4"
"591","0.020787500000000136","0.011269000000000062"
"592","0.005743333333334342","4.7727272727253006E-4"
"593","0.043336666666666884","-0.059706666666666255"
"594","0.006995000000000336","0.00311366666666603"
"595","0.01257555555555396","-4.0166666666725033E-4"
"596","0.021175999999999816","-0.006519999999999015"
"597","0.018722999999997825","0.016293499999999385"
"598","0.009592499999996562","0.004010000000000069"
"599","0.002479999999991378","-0.008770000000001943"
"600","0.029599999999987858","-0.03201500000000124"
"601","0.004479852941176934","-0.0015895588235295263"
"602","0.008125000000004453","-0.0025250000000003325"
"603","0.011655000000001081","0.0078699999999996"
"604","0.0","0.0"
"605","0.0046500000000122554","0.017240000000001032"
"606","0.025065000000005","0.0018199999999968242"
"607","1.0000000003174137E-5","9.999999999621423E-6"
"608","0.3737299999999806","0.15563999999999467"
"609","0.02115999999999829","-0.018227500000000063"
"610","0.005579999999994811","-0.04371999999999687"
"611","0.037832000000003065","-0.002790000000000248"
"612","0.028669999999994644","-0.007969999999999366"
"613","0.016672187500000712","-0.02296718749999971"
"614","0.009557368421055082","-0.010895789473684303"
"615","0.007687500000001735","-0.015969375000000285"
"616","0.011289642857143749","-0.011918928571428669"
"617","0.00952437500000064","-0.008922812500000266"
"618","0.017223478260868598","-0.012210434782608599"
"619","0.016834444444443857","-0.018549999999999598"
"620","0.17463257575757551","-0.15938727272727293"
"621","0.010868604651161379","-0.008015116279069884"
"622","0.005458124999999647","-0.00563531249999949"
"623","0.016626666666667827","-0.015360416666666618"
"624","0.016418333333330537","-0.016821666666666363"
"625","0.014263333333333031","-0.01390714285714352"
"626","0.011445625000000348","-0.016309062499999638"
"627","0.005173714285714835","-0.0077468571428578265"
"628","0.006307368421054686","-0.008326842105263367"
"629","0.016334705882353345","-0.012888823529412426"
"630","0.005692105263158372","-0.006425263157894385"
"631","0.0060024999999992446","-0.004427500000001139"
"632","0.004894999999997651","-0.0020024999999979087"
"633","0.004875263157895472","-0.005533684210525125"
"634","0.005224545454544572","-0.004514545454545182"
"635","0.00796142857142712","-0.004708571428571824"
"636","0.004417500000002406","-0.004680000000000462"
"637","0.020986000000000615","-0.010535999999999745"
"638","0.015599999999999906","-0.01769724137931048"
"639","0.0","0.0"
"640","0.008742500000001385","-0.00787000000000031"
"641","0.009315999999999746","-0.0025279999999995085"
"642","0.004655714285714144","-0.006645714285713922"
"643","0.004328571428575044","-0.003710000000000641"
"644","0.005218571428579415","-0.0035842857142850243"
"645","0.010244000000000142","-0.008260000000001355"
"646","0.011977499999993313","-0.006875000000000853"
"647","0.02723666666666465","-0.01566499999999967"
"648","0.00626000000000561","-0.0076142857142847175"
"649","0.008357499999995355","-0.0062000000000006494"
"650","0.015960000000006858","-0.0025700000000004053"
"651","0.05438000000000898","-0.006699999999998596"
"652","0.0342199999999977","-0.05188000000000237"
"653","0.03988999999998555","-0.043849999999995504"
"654","0.043939999999992096","-0.036270000000000614"
"655","0.052580000000006066","-0.09629666666666736"
"656","0.01063777777777375","-0.03895555555555516"
"657","1.4999999999076863E-4","-0.017519999999997538"
"658","0.03206599999999753","-0.04672599999999889"
"659","0.023803846153842432","-0.02442692307692395"
"660","0.025671935483873302","-0.023264193548386637"
"661","0.010526382978723428","-0.007416808510638179"
"662","0.017195555555553337","-0.006267777777778394"
"663","0.013945238095236047","-0.009259999999999465"
"664","0.00865794117647019","-0.008666470588235513"
"665","0.04216860000000043","-0.2910362000000002"
"666","0.008928484848484236","-0.009267727272727167"
"667","0.017767931034482917","-0.015866206896551965"
"668","0.015268484848486126","-0.012880606060605797"
"669","1.0867402857142858","-0.07206800000000026"
"670","0.007992272727274884","-0.006894999999998965"
"671","0.005431818181815051","-0.007048181818182412"
"672","0.04758315789473631","-0.13776394736842054"
"673","0.008139999999999646","-0.012900800000000174"
"674","0.006212500000000176","-0.011389166666667746"
"675","0.010621600000000342","-0.009695999999999998"
"676","0.008022222222220302","-0.012554444444444238"
"677","0.006375652173913569","-0.005278695652174725"
"678","0.004764000000000124","-0.005225999999999687"
"679","0.00633399999999682","-0.009895999999999816"
"680","0.007164285714284497","-0.008331428571427832"
"681","0.004176000000000357","-0.005154000000000281"
"682","0.005081578947368452","-0.005739999999999225"
"683","0.004398888888889729","-0.003754444444444813"
"684","0.00426299999999884","-0.005298000000001224"
"685","0.018167727272725965","-0.023361363636362886"
"686","0.006560000000001054","-0.010435000000000017"
"687","0.00934000000000026","-0.00709500000000034"
"688","0.6409438888888906","-0.1470738888888895"
"689","0.007252187500000673","-0.0050546874999999325"
"690","0.012636250000005234","-0.007105000000000139"
"691","0.0","0.0"
"692","0.006623999999999341","-0.007986000000000359"
"693","0.013948000000004868","-0.008571999999999491"
"694","0.007545000000000357","-0.005469999999998976"
"695","0.0023499999999927468","-0.003950000000003229"
"696","0.0","0.0"
"697","0.0063025000000038744","-0.0036549999999992977"
"698","0.001370000000008531","-0.0016199999999990666"
"699","0.004502499999993859","-0.003955000000001263"
"700","0.01518000000000086","-0.029920000000004165"
"701","0.018762500000004678","-0.020645000000000913"
"702","0.012000000000000455","-0.0012199999999999989"
"703","0.0016099999999994452","-0.010199999999997544"
"704","0.010694999999998345","-0.01335000000000175"
"705","0.03859000000001345","-0.009820000000001272"
"706","0.010183999999996907","-0.013828999999998004"
"707","0.01300657142857075","-0.015746857142857403"
"708","0.012306712328767306","-0.010966986301369712"
"709","0.4773408571428554","-0.018616857142856803"
"710","0.01577678571428517","-0.01034392857142866"
"711","0.011133773584907303","-0.01055358490566002"
"712","0.015057999999998994","-0.010301833333333477"
"713","0.010364444444444086","-0.00763148148148146"
"714","0.011660786516852619","-0.01185573033707874"
"715","0.017588292682927067","-0.01157780487804884"
"716","0.011533500000000441","-0.016088999999999666"
"717","0.015084999999999859","-0.014480000000000192"
"718","0.009981999999997168","-0.008453428571428593"
"719","0.007030000000000092","-0.008052500000000018"
"720","0.011920888888888944","-0.010924666666666857"
"721","0.008579749999999286","-0.014401500000000044"
"722","0.009080606060606365","-0.009230303030303158"
"723","0.01149095238095096","-0.011831428571428472"
"724","0.009325624999999782","-0.007103750000000186"
"725","0.020321818181818167","-0.015639090909091505"
"726","0.0069229411764699395","-0.007371176470588381"
"727","0.004937894736842901","-0.006000000000000415"
"728","0.0064183333333325265","-0.006995555555555594"
"729","0.0044423333333339105","-0.004693000000000088"
"730","0.0043981818181813214","-0.005408636363636693"
"731","0.01538099999999929","-0.00833699999999844"
"732","0.006129999999999648","-0.010401111111111305"
"733","0.008652352941175553","-0.005324117647059351"
"734","0.0067425000000008355","-0.00946499999999991"
"735","0.005027499999999867","-0.00585892857142843"
"736","0.18363457142856945","-0.07532628571428564"
"737","0.5531778571428535","-0.3990300000000003"
"738","0.01219000000001813","-0.012149999999998329"
"739","0.0","0.0"
"740","0.0","0.0"
"741","0.3899538461538501","-0.627598846153846"
"742","0.006733999999994467","-0.008679999999999665"
"743","0.003505833333332949","-0.006177500000000317"
"744","0.022346249999998236","-0.01958750000000009"
"745","0.005969999999994258","-0.004830000000001"
"746","0.004970000000004878","-0.0014533333333363412"
"747","0.009779999999998219","-0.010889999999999336"
"748","0.01105000000001155","-0.004110000000004277"
"749","0.014645000000001573","-0.004889999999996064"
"750","0.006279999999989627","-0.009990000000001942"
"751","0.0","0.0"
"752","0.02359749999999522","-0.008084999999998566"
"753","0.016831818181817913","-0.01314545454545556"
"754","0.009620000000002127","-0.013000000000000567"
"755","0.009426000000000274","-0.009966166666666727"
"756","0.013113750000001404","-0.012689166666666493"
"757","0.012321707317073362","-0.00750170731707443"
"758","0.07494377551020452","-0.10300642857142885"
"759","0.016077142857143522","-0.017149230769231333"
"760","0.013134375000000439","-0.010641041666666387"
"761","0.01775759259259219","-0.017779999999999404"
"762","0.011271166666667002","-0.010974999999999764"
"763","0.009053448275861856","-0.01753793103448225"
"764","0.010011875000000892","-0.010193437500000402"
"765","0.01270403225806439","-0.012315483870968"
"766","0.006435762711864636","-0.007429830508475229"
"767","0.023286666666666483","-0.0376118181818172"
"768","0.008363404255319553","-0.009327659574468343"
"769","0.009430999999999301","-0.009712499999999125"
"770","0.015766499999999795","-0.016404000000000352"
"771","0.00440066666666515","-0.008249333333334856"
"772","0.007623888888888233","-0.011011666666665261"
"773","0.007394615384616925","-0.008670000000000126"
"774","0.007908666666665454","-0.007183999999998273"
"775","0.006456249999999386","-0.0053949999999991505"
"776","0.004441250000000174","-0.004057500000000935"
"777","0.008631111111110416","-0.0036877777777775123"
"778","0.0066980000000015135","-0.013536000000001991"
"779","0.012803999999998438","-0.01703799999999802"
"780","0.009918571428571507","-0.006569999999999584"
"781","0.20804146341463411","-0.6316341463414638"
"782","0.00865724137930994","-0.005216896551724365"
"783","0.0062757142857193015","-0.004673571428572387"
"784","0.01226176470588063","-0.01350058823529419"
"785","0.00820000000000102","-0.005163333333332372"
"786","0.005210000000005266","-0.008829999999999671"
"787","0.002605000000002633","-0.0066599999999965576"
"788","0.005282499999996304","-0.008319999999999439"
"789","0.007508571428569358","-0.013935000000000539"
"790","0.0059187499999939774","-0.010158750000001326"
"791","2.3999999999091415E-4","-0.005210000000005266"
"792","0.0","0.0"
"793","0.007607500000000063","-0.006516666666667466"
"794","0.006407692307695138","-0.010190000000001202"
"795","0.0","0.0"
"796","0.008763333333339082","-0.005549999999997131"
"797","0.002919999999996037","-0.0012399999999974654"
"798","0.0","0.0"
"799","0.0029566666666666444","-0.002716666666669217"
"800","0.012171052631578852","-0.011925263157895404"
"801","0.010928333333333503","-0.004170833333333235"
"802","0.011534054054054433","-0.009884054054055206"
"803","0.02132545454545509","-0.01571409090909012"
"804","0.020298518518517546","-0.012410740740741041"
"805","0.32553657142857","-0.40328399999999953"
"806","0.008122769230768894","-0.007889999999999675"
"807","0.007229534883720631","-0.0077404651162795044"
"808","0.006818809523809797","-0.009872380952381426"
"809","0.008068108108107961","-0.01302797297297335"
"810","0.00883062499999998","-0.01697093750000067"
"811","0.022893333333331795","-0.016200000000000405"
"812","0.026890504201679242","-0.0582552941176469"
"813","0.010421969696970788","-0.00967969696969677"
"814","0.008946666666666658","-0.012550000000000712"
"815","0.007505000000000983","-0.0118612500000006"
"816","0.0079494444444437","-0.008736111111112166"
"817","0.01067666666666656","-0.011639259259259424"
"818","0.005648214285715015","-0.00746214285714356"
"819","0.007585769230769957","-0.005209230769231145"
"820","0.006962941176470933","-0.006544705882353445"
"821","0.003652857142858425","-0.004162857142855866"
"822","0.004113333333333931","-0.011896666666665112"
"823","0.005378749999999322","-0.007711249999999836"
"824","0.003926249999998355","-0.006101249999996838"
"825","0.005050000000000019","-0.005463181818182828"
"826","0.00821444444444176","-0.00834444444444513"
"827","0.006935000000002134","-0.002405000000006652"
"828","0.011187272727274237","-0.009633636363635002"
"829","0.010020624999998784","-0.013894375000000458"
"830","0.007393611111110587","-0.007722777777777523"
"831","0.0048844999999978714","-0.005771999999998556"
"832","0.007306666666669964","-0.008129696969696884"
"833","0.014437499999997883","-0.01350500000000121"
"834","0.00340333333333831","-0.010018333333332427"
"835","0.00963999999999506","-0.002983333333337631"
"836","0.0028200000000140335","-0.0023600000000101318"
"837","0.009930000000001845","-0.02133333333333572"
"838","0.0","0.0"
"839","0.007950000000008117","-0.038879999999998915"
"840","0.007127777777775969","-0.016740000000000223"
"841","0.0","0.0"
"842","0.0","0.0"
"843","0.004405000000005543","-0.029495000000000715"
"844","0.0046500000000122554","-0.006489999999999441"
"845","0.0","0.0"
"846","0.0","0.0"
"847","0.05119000000000064","-0.04786285714285705"
"848","0.02365352941176379","-0.03353764705882282"
"849","0.008931219512194622","-0.00895609756097536"
"850","0.007339787234042478","-0.007540638297870557"
"851","0.007320945945946071","-0.008248648648648532"
"852","0.01211483870967685","-0.011327096774193348"
"853","0.005873243243243084","-0.008544864864865921"
"854","0.006103548387096635","-0.013251612903225865"
"855","0.006326428571426845","-0.006607142857140401"
"856","0.014177619047616576","-0.018940000000000283"
"857","0.006353695652173725","-0.006825869565218405"
"858","0.008409090909089506","-0.007740000000000026"
"859","0.006857500000000285","-0.00536615384615525"
"860","0.010698571428572345","-0.01640642857142741"
"861","0.009975483870967826","-0.012608064516129273"
"862","0.04338636363636442","-0.026594545454545357"
"863","0.005470454545453019","-0.009200000000000845"
"864","0.0058024242424244135","-0.008614848484848442"
"865","0.005414347826086957","-0.005555000000000005"
"866","0.009083999999999292","-0.005938000000000443"
"867","0.0057229999999997005","-0.0104069999999993"
"868","0.0011233333333322548","-0.009063333333330093"
"869","0.005092857142854663","-0.007002857142855946"
"870","0.009891250000001683","-0.010197500000001192"
"871","0.011637692307692541","-0.00821923076922924"
"872","0.004826190476190648","-0.007153333333334223"
"873","0.013510588235293393","-0.010243529411763945"
"874","0.0073991666666686955","-0.005750833333335"
"875","0.007353846153846506","-0.006600000000000468"
"876","0.008514761904762176","-0.009996190476192015"
"877","0.01022857142857043","-0.007082857142854948"
"878","0.0043811538461537335","-0.008492307692309763"
"879","0.012280000000002487","-0.01217555555555647"
"880","0.007814999999986583","-0.001300000000000523"
"881","0.011770000000012715","-0.005130000000001189"
"882","0.0","0.0"
"883","0.010574999999995782","-0.004165000000000418"
"884","0.011516363636364314","-0.004856363636363881"
"885","0.0060100000000034015","-0.030936666666669055"
"886","0.0","0.0"
"887","0.013270000000005666","-0.012676666666664005"
"888","0.0","0.0"
"889","0.0","0.0"
"890","0.009143333333331801","-0.007943333333334598"
"891","0.005464999999993836","-0.0036300000000011323"
"892","0.0","0.0"
"893","0.0","0.0"
"894","0.00818999999999841","-0.005070000000000618"
"895","0.011326666666673516","-0.01917999999999746"
"896","0.012528000000000686","-0.008761666666667622"
"897","0.004815762711864501","-0.004965423728813211"
"898","0.006389733333333231","-0.008480266666666979"
"899","0.009892916666666288","-0.009738750000000943"
"900","0.007330416666665969","-0.014028333333333087"
"901","0.0104161538461525","-0.01688230769230669"
"902","0.007446190476189753","-0.010405238095238528"
"903","0.009406818181817817","-0.01163045454545591"
"904","0.008494999999998396","-0.008820000000001065"
"905","0.09644754385964922","-0.25413736842105367"
"906","0.013190789473683807","-0.014037368421052247"
"907","0.008028666666666358","-0.011199333333332836"
"908","0.005829999999998796","-0.0078000000000016155"
"909","0.008131000000000199","-0.005163000000001005"
"910","0.010595555555557072","-0.009381111111109262"
"911","0.008957499999998694","-0.009129166666667151"
"912","0.005627142857142989","-0.010505000000001477"
"913","0.006228235294116339","-0.013897647058822779"
"914","0.007811176470587815","-0.008021176470590523"
"915","0.004204615384616353","-0.006773846153847693"
"916","0.01131857142857078","-0.00971857142857045"
"917","0.005670000000002062","-0.021669999999993195"
"918","0.009919000000002143","-0.01171200000000141"
"919","2.3499999999998522E-4","-0.010384999999999422"
"920","0.01030099999999976","-0.011628499999999774"
"921","0.012303200000000345","-0.01186839999999961"
"922","0.00991049999999909","-0.007569499999998186"
"923","0.00795833333333403","-0.006829166666665998"
"924","0.009916249999999405","-0.014370000000000882"
"925","0.009366666666667337","-0.010039047619049227"
"926","0.008811875000001024","-0.009729374999999596"
"927","0.012238181818185529","-0.015275454545454053"
"928","0.014754374999995434","-0.014198750000000704"
"929","0.009328888888894148","-0.01223555555555262"
"930","0.008739090909089824","-0.013686363636363875"
"931","0.014485714285711992","-0.02940142857142953"
"932","0.0","0.0"
"933","0.00446000000000879","-0.010820000000002494"
"934","0.004785000000012474","-0.0028349999999939257"
"935","0.009240000000005466","-0.021284999999998888"
"936","0.0","0.0"
"937","0.011397142857144818","-0.019067142857141204"
"938","0.0014674999999968463","-0.00601999999999947"
"939","0.0","0.0"
"940","0.0","0.0"
"941","0.01160999999999035","-0.001510000000003231"
"942","0.010908333333333076","-0.004673333333332863"
"943","0.012406249999999064","-0.01380875000000037"
"944","0.007424000000000177","-0.013294799999999328"
"945","0.005571818181822023","-0.008348181818182613"
"946","0.0071190909090918875","-0.018194545454543295"
"947","0.014742727272723693","-0.02012363636363481"
"948","0.24104649999999878","-0.43301025000000115"
"949","0.002255000000005225","-0.016302500000001885"
"950","0.00871400000000051","-0.0292420000000007"
"951","0.015200000000000102","-0.010571428571428296"
"952","0.6285472340425529","-0.2697757446808515"
"953","0.006936470588232879","-0.008230588235293494"
"954","0.00706250000000086","-0.007897499999998558"
"955","0.007043749999999349","-0.0022625000000013884"
"956","0.0035975000000014745","-0.0069025000000007"
"957","0.010652857142857337","-0.009395714285712333"
"958","0.009083333333333284","-0.0042933333333326435"
"959","0.009950000000003456","-0.0097199999999944"
"960","0.007216000000001088","-0.007049999999999557"
"961","0.005093333333332358","-0.00911333333333649"
"962","0.0058600000000055275","-0.004029999999993095"
"963","0.0043199999999998795","-0.004573333333330727"
"964","0.003399999999998166","-0.007999999999999627"
"965","0.005520000000004188","-0.013119999999997134"
"966","0.00582250000000073","-0.011226249999998217"
"967","0.012769999999996173","-0.004529999999999035"
"968","0.008783333333333587","-0.006751666666667451"
"969","0.00891833333333262","-0.005263333333335396"
"970","0.008323500000000195","-0.009866000000000952"
"971","0.003522777777778035","-0.00958722222222461"
"972","0.008104230769233185","-0.01110230769230633"
"973","0.007492068965518193","-0.008445517241379081"
"974","0.009093571428570004","-0.018317857142855182"
"975","0.007778888888883746","-0.009077777777779121"
"976","0.011659999999999116","-0.019629999999992265"
"977","0.0038200000000014394","-0.007480000000000252"
"978","0.024423076923077665","-0.016870769230768936"
"979","0.05180000000000007","-0.02434000000000225"
"980","0.005235000000002543","-0.004992500000000177"
"981","0.0024399999999928923","-0.014479999999998938"
"982","0.002567500000001388","-0.007687499999997627"
"983","0.012660000000010996","-0.017110000000009506"
"984","0.006726666666665437","-0.014771666666668182"
"985","0.0018799999999998818","-0.002309999999994261"
"986","0.0","0.0"
"987","0.0","0.0"
"988","0.006330000000000169","-0.0046399999999948704"
"989","0.0027150000000020214","-0.012274999999998926"
"990","0.052217499999997585","-0.030947500000001682"
"991","0.01577611111111072","-0.0075361111111118045"
"992","0.008232631578947965","-0.012047368421053537"
"993","0.016772499999998303","-0.014587500000001086"
"994","0.01753000000000049","-0.012367499999998088"
"995","0.010830000000012774","-0.004849999999990473"
"996","0.02376000000000289","-0.005780000000001451"
"997","0.024350000000005423","-0.0028750000000030695"
"998","0.009902000000002431","-0.004244000000000625"
"999","0.011760999999997069","-0.007385999999999626"
"1000","0.005350000000002335","-0.003873333333333543"
"1001","1.9999999995690132E-5","-0.016120000000007906"
"1002","0.0","0.0"
"1003","0.007609999999997304","-0.010199999999999912"
"1004","0.01296300000000059","-0.01746299999999934"
"1005","0.005129999999994084","-0.008259999999999934"
"1006","0.005720000000001353","-0.008256666666667911"
"1007","0.007416666666668921","-0.007483333333337801"
"1008","0.0036740000000008875","-0.005625999999999465"
"1009","0.010419999999999874","-0.00661500000000359"
"1010","0.002456250000001159","-0.003466874999999092"
"1011","0.007040000000003488","-0.003789999999998628"
"1012","0.007386666666668873","-0.005383333333324932"
"1013","0.003632500000001926","-0.004567500000002056"
"1014","0.00840500000000155","-0.012745000000000672"
"1015","0.005363999999999436","-0.011423999999999523"
"1016","0.009950000000000792","-0.010962499999997988"
"1017","0.00689999999999813","-0.005444999999994593"
"1018","0.007499333333332932","-0.008653333333332588"
"1019","0.010893333333337788","-0.009193333333332276"
"1020","0.007285882352942043","-0.006392058823530575"
"1021","0.007024827586208999","-0.010407241379309966"
"1022","0.005559374999996258","-0.011014999999998665"
"1023","0.00634000000000583","-0.007507999999999982"
"1024","0.005877500000000424","-0.017037500000004258"
"1025","0.026710833333330204","-0.027044166666666907"
"1026","0.1083150000000046","-0.0035200000000052967"
"1027","0.003620000000012169","-0.00133000000000294"
"1028","0.0","0.0"
"1029","0.003729999999999715","-0.020676666666664307"
"1030","0.0","0.0"
"1031","0.00563500000000398","-0.012462500000001006"
"1032","0.0","0.0"
"1033","0.0","0.0"
"1034","0.0","0.0"
"1035","0.007955000000000156","-0.017370000000003216"
"1036","0.0","0.0"
"1037","0.0","0.0"
"1038","0.01612999999999924","-0.01767333333333217"
"1039","0.006208000000001235","-0.014542000000000143"
"1040","0.017722307692307957","-0.015170769230769893"
"1041","0.011426428571428409","-0.016097857142857004"
"1042","0.007101818181819006","-0.012255454545455341"
"1043","0.054324000000000615","-0.11561600000000141"
"1044","0.0033358333333334635","-0.002948333333333627"
"1045","0.0025731249999987327","-0.0037618749999994705"
"1046","0.012550000000001345","-0.00884222222222301"
"1047","0.00828099999999985","-0.0082650000000001"
"1048","0.015359999999996887","-0.013860000000001094"
"1049","0.004667500000000935","-0.0045175000000021726"
"1050","5.799999999993588E-4","-0.0022599999999997067"
"1051","0.0019850000000047885","-0.009994999999999976"
"1052","0.00699499999999631","-0.006399999999999295"
"1053","0.008089999999995712","-0.004200000000004422"
"1054","0.0040399999999998215","-0.0013550000000073226"
"1055","0.0","0.0"
"1056","0.009734999999999161","-0.0018799999999998818"
"1057","0.0021700000000066666","-0.005320000000004654"
"1058","0.0","0.0"
"1059","0.0022599999999997067","-0.0051799999999957436"
"1060","0.0072333333333318706","-0.006116666666668398"
"1061","0.003516666666664984","-0.00874666666666594"
"1062","0.0026400000000019","-0.0028699999999967454"
"1063","0.005309999999998638","-0.009595999999999095"
"1064","0.004827499999995766","-0.010732500000001366"
"1065","0.00656333333333355","-0.009824999999996939"
"1066","0.009179999999998856","-0.0065475000000008166"
"1067","0.019517999999993662","-0.015554000000005886"
"1068","0.00898666666667225","-0.010569999999998933"
"1069","0.0076229411764701886","-0.011505294117646388"
"1070","0.005613461538462052","-0.008941923076923293"
"1071","0.008409090909091012","-0.003557272727274029"
"1072","0.005008571428567572","-0.01337571428571189"
"1073","0.010542631578946714","-0.0178673684210531"
"1074","0.0015366666666617828","-0.007110000000002022"
"1075","0.006594999999997242","-0.0074474999999960545"
"1076","0.0","0.0"
"1077","0.0038039999999995187","-0.009253999999998541"
"1078","0.005455294117647427","-0.016545882352940064"
"1079","0.0","0.0"
"1080","0.0","0.0"
"1081","0.0","0.0"
"1082","0.0","0.0"
"1083","0.0","0.0"
"1084","0.0","0.0"
"1085","0.0","0.0"
"1086","0.0","0.0"
"1087","0.023374444444444562","-0.016008888888888368"
"1088","0.010198571428571057","-0.014564285714285015"
"1089","0.004850000000004684","-0.006840000000003954"
"1090","0.015184999999995341","-0.010844999999996219"
"1091","0.015132857142855219","-0.011379999999999566"
"1092","0.0184740000000005","-0.01600000000000108"
"1093","0.011559999999997928","-0.02466399999999993"
"1094","0.006099999999996442","-0.01530999999999949"
"1095","0.0","0.0"
"1096","0.0","0.0"
"1097","0.0","0.0"
"1098","0.0","0.0"
"1099","0.0","0.0"
"1100","0.0","0.0"
"1101","0.0","0.0"
"1102","0.0","0.0"
"1103","0.0","0.0"
"1104","0.0","0.0"
"1105","0.0","0.0"
"1106","0.0","0.0"
"1107","0.0","0.0"
"1108","0.0","0.0"
"1109","0.008939999999995507","-0.0038500000000070145"
"1110","0.005319999999997549","-0.02029999999999177"
"1111","0.0040133333333282435","-0.0047133333333349015"
"1112","0.004978333333332567","-0.007216666666670572"
"1113","0.008217777777786416","-0.004801111111115277"
"1114","0.00809857142856986","-0.010594285714285587"
"1115","0.011810000000000542","-0.011989166666666051"
"1116","0.007801999999998088","-0.023162000000003503"
"1117","0.004765000000002573","-0.015387500000001886"
"1118","0.006597857142857322","-0.013690714285713921"
"1119","0.006881578947376224","-0.010463157894736392"
"1120","0.0036374999999972957","-0.009033125000000197"
"1121","0.005605454545456145","-0.00943909090909239"
"1122","0.008025714285712601","-0.015678571428571514"
"1123","0.015064615384614054","-0.01677807692307727"
"1124","0.00693999999999701","-0.0065688888888881065"
"1125","0.004564193548386327","-0.0068409677419360776"
"1126","0.001780000000001299","-0.008239999999998323"
"1127","0.0","0.0"
"1128","0.0","0.0"
"1129","0.05125000000001023","-0.006479999999999819"
"1130","0.0","0.0"
"1131","0.008419999999986771","-0.009549999999997283"
"1132","0.0045900000000074215","-0.001589999999993097"
"1133","0.0","0.0"
"1134","0.0","0.0"
"1135","0.0","0.0"
"1136","0.0","0.0"
"1137","0.0","0.0"
"1138","0.0","0.0"
"1139","0.0","0.0"
"1140","0.0","0.0"
"1141","0.0","0.0"
"1142","0.0","0.0"
"1143","0.0","0.0"
"1144","0.0","0.0"
"1145","0.0","0.0"
"1146","0.0","0.0"
"1147","0.0","0.0"
"1148","0.0","0.0"
"1149","0.0","0.0"
"1150","0.0","0.0"
"1151","0.0","0.0"
"1152","0.0","0.0"
"1153","0.0","0.0"
"1154","0.0","0.0"
"1155","0.0","0.0"
"1156","0.0","0.0"
"1157","0.0","0.0"
"1158","0.0","0.0"
"1159","0.0","0.0"
"1160","0.0034580000000005383","-0.010452000000002215"
"1161","0.0","0.0"
"1162","0.0","0.0"
"1163","0.0","0.0"
"1164","0.0","0.0"
"1165","0.0","0.0"
"1166","0.005274999999990371","-0.0019299999999944362"
"1167","0.004844166666667131","-0.003975000000000506"
"1168","0.006334615384614227","-0.004209670329670091"
"1169","0.004148382352941754","-0.004107058823529307"
"1170","0.00678046511627685","-0.006129534883720633"
"1171","0.011001386138614766","-0.011209405940593878"
"1172","0.004529423076923295","-0.005033076923075496"
"1173","0.008770588235295203","-0.014900588235294897"
"1174","0.0045457142857117105","-0.009420000000002713"
