"cell_id","acc_x","acc_y"
"0","0.0","0.0"
"1","0.0","0.0"
"2","0.0","0.0"
"3","0.0","0.0"
"4","0.0","0.0"
"5","0.0","0.0"
"6","0.0","0.0"
"7","0.0","0.0"
"8","0.0","0.0"
"9","0.0","0.0"
"10","0.0","0.0"
"11","0.0","0.0"
"12","0.0","0.0"
"13","0.0","0.0"
"14","0.0","0.0"
"15","0.0","0.0"
"16","0.0","0.0"
"17","0.0","0.0"
"18","0.0","0.0"
"19","0.0","0.0"
"20","0.0","0.0"
"21","0.0","0.0"
"22","0.0","0.0"
"23","0.0","0.0"
"24","0.0","0.0"
"25","0.0","0.0"
"26","0.0","0.0"
"27","0.0","0.0"
"28","0.0","0.0"
"29","0.0","0.0"
"30","0.0","0.0"
"31","0.0","0.0"
"32","0.0","0.0"
"33","0.0","0.0"
"34","0.0","0.0"
"35","0.0","0.0"
"36","0.0","0.0"
"37","0.0","0.0"
"38","0.0","0.0"
"39","0.0","0.0"
"40","0.0","0.0"
"41","0.0","0.0"
"42","0.0","0.0"
"43","0.0","0.0"
"44","0.0","0.0"
"45","0.0","0.0"
"46","0.0","0.0"
"47","0.0","0.0"
"48","0.0","0.0"
"49","0.0","0.0"
"50","0.0","0.0"
"51","0.0","0.0"
"52","0.0","0.0"
"53","0.0","0.0"
"54","0.0","0.0"
"55","0.0","0.0"
"56","0.0","0.0"
"57","0.0","0.0"
"58","0.0","0.0"
"59","0.0","0.0"
"60","0.0","0.0"
"61","0.0","0.0"
"62","0.0","0.0"
"63","0.0","0.0"
"64","0.01013833333333262","0.005648333333333477"
"65","0.054779999999993834","0.09885000000000055"
"66","0.0","0.0"
"67","0.0","0.0"
"68","0.0","0.0"
"69","0.0","0.0"
"70","0.0","0.0"
"71","0.0","0.0"
"72","0.0","0.0"
"73","0.0","0.0"
"74","0.0","0.0"
"75","0.0","0.0"
"76","0.0","0.0"
"77","0.0","0.0"
"78","0.0","0.0"
"79","0.0","0.0"
"80","0.0","0.0"
"81","0.0","0.0"
"82","0.0","0.0"
"83","0.0","0.0"
"84","0.0","0.0"
"85","0.0","0.0"
"86","0.0","0.0"
"87","0.0","0.0"
"88","0.0","0.0"
"89","0.0","0.0"
"90","0.0","0.0"
"91","0.0","0.0"
"92","0.0","0.0"
"93","0.0","0.0"
"94","0.0","0.0"
"95","0.03680333333333389","0.034107777777777945"
"96","0.01606999999999914","0.0056400000000005335"
"97","0.0020500000000112095","0.00882000000000005"
"98","0.0","0.0"
"99","0.0","0.0"
"100","0.0","0.0"
"101","0.0","0.0"
"102","0.0","0.0"
"103","0.0","0.0"
"104","0.0","0.0"
"105","0.0","0.0"
"106","0.13873999999999853","0.10016666666666652"
"107","0.0","0.0"
"108","0.0","0.0"
"109","0.035079999999997113","0.06267000000000023"
"110","0.02696999999999683","0.0190450000000002"
"111","0.022759999999998115","0.007059999999999178"
"112","0.0","0.0"
"113","0.0","0.0"
"114","0.0","0.0"
"115","0.0","0.0"
"116","0.0","0.0"
"117","0.0","0.0"
"118","0.0","0.0"
"119","0.0","0.0"
"120","0.0","0.0"
"121","0.0","0.0"
"122","0.0","0.0"
"123","0.0","0.0"
"124","0.0","0.0"
"125","0.0","0.0"
"126","0.0","0.0"
"127","0.0","0.0"
"128","0.0","0.0"
"129","0.0","0.0"
"130","0.0","0.0"
"131","0.0","0.0"
"132","0.0","0.0"
"133","0.0","0.0"
"134","0.0","0.0"
"135","0.0","0.0"
"136","0.0","0.0"
"137","0.0","0.0"
"138","0.0","0.0"
"139","0.0","0.0"
"140","0.0","0.0"
"141","0.0","0.0"
"142","0.003950000000003229","0.003169999999999895"
"143","0.031490000000005125","0.05745999999999807"
"144","0.0","0.0"
"145","0.0","0.0"
"146","0.0","0.0"
"147","0.0","0.0"
"148","0.0","0.0"
"149","0.014435000000000642","0.027990000000000403"
"150","0.0","0.0"
"151","0.07842500000000108","0.041805000000000536"
"152","0.16602499999999587","0.11181999999999936"
"153","0.007229999999999848","0.0526099999999996"
"154","0.0","0.0"
"155","0.0","0.0"
"156","0.010236666666666375","0.016696666666666953"
"157","0.0","0.0"
"158","0.0","0.0"
"159","0.0","0.0"
"160","0.0","0.0"
"161","0.0","0.0"
"162","0.0","0.0"
"163","0.0","0.0"
"164","0.0","0.0"
"165","0.0","0.0"
"166","0.0","0.0"
"167","0.0","0.0"
"168","0.0","0.0"
"169","0.0","0.0"
"170","0.0","0.0"
"171","0.0","0.0"
"172","0.0","0.0"
"173","0.0","0.0"
"174","0.0","0.0"
"175","0.0","0.0"
"176","0.0","0.0"
"177","0.0","0.0"
"178","0.007744999999999891","0.017535000000000522"
"179","0.02176000000000992","0.02342000000000007"
"180","0.01882333333333956","0.017659999999999936"
"181","0.043429999999986535","0.05264000000000024"
"182","0.0","0.0"
"183","0.0","0.0"
"184","0.0","0.0"
"185","0.0","0.0"
"186","0.0","0.0"
"187","0.0","0.0"
"188","0.0","0.0"
"189","0.0","0.0"
"190","0.005110000000001058","0.03260666666666564"
"191","0.009124285714285791","0.04070285714285709"
"192","0.012849999999998474","0.04107999999999912"
"193","0.0","0.0"
"194","0.013570000000001414","0.01829999999999963"
"195","0.004630000000000578","0.019300000000000317"
"196","0.023296666666666965","0.019719999999999516"
"197","0.0","0.0"
"198","0.013753333333333728","0.015836666666666055"
"199","0.01638666666666803","0.016703333333333365"
"200","0.0","0.0"
"201","0.0","0.0"
"202","0.002000000000000668","0.012434999999999974"
"203","0.0","0.0"
"204","0.0","0.0"
"205","0.0","0.0"
"206","0.0","0.0"
"207","0.0","0.0"
"208","0.0","0.0"
"209","0.0","0.0"
"210","0.0","0.0"
"211","0.0","0.0"
"212","0.0","0.0"
"213","0.0","0.0"
"214","0.0","0.0"
"215","0.0","0.0"
"216","0.0","0.0"
"217","0.0","0.0"
"218","0.0","0.0"
"219","0.0","0.0"
"220","0.0","0.0"
"221","0.0","0.0"
"222","0.01990111111111048","0.012153333333333115"
"223","0.015347499999997183","0.020872499999999405"
"224","0.0","0.0"
"225","0.025770000000001403","0.02803000000000111"
"226","0.024446000000001314","0.016814000000000107"
"227","0.014718000000002007","0.009548000000000023"
"228","0.02656523809523917","0.026990952380952477"
"229","0.0","0.0"
"230","0.0","0.0"
"231","0.008907500000002955","0.017833749999999204"
"232","0.0","0.0"
"233","0.0","0.0"
"234","0.0","0.0"
"235","0.0","0.0"
"236","0.0","0.0"
"237","0.01957375000000028","0.012438750000000276"
"238","0.0","0.0"
"239","0.026284999999998337","0.015170000000000794"
"240","0.0","0.0"
"241","0.0020966666666660436","0.010696666666667317"
"242","0.017694999999998906","0.016814999999999358"
"243","0.0","0.0"
"244","0.0","0.0"
"245","0.0","0.0"
"246","0.007859999999997314","0.01130000000000031"
"247","0.005970000000001363","0.013629999999999143"
"248","0.0","0.0"
"249","0.017367499999999758","0.015699999999999825"
"250","0.0","0.0"
"251","0.0","0.0"
"252","0.03390000000000981","0.03623999999999761"
"253","0.009746666666664794","0.0045999999999999375"
"254","0.0","0.0"
"255","0.0","0.0"
"256","0.0","0.0"
"257","0.0","0.0"
"258","0.0","0.0"
"259","0.0","0.0"
"260","0.0","0.0"
"261","0.0","0.0"
"262","0.0","0.0"
"263","0.0","0.0"
"264","0.0","0.0"
"265","0.0","0.0"
"266","0.004449999999998511","0.014110000000000511"
"267","0.006959999999992306","0.012250000000000464"
"268","0.004914999999989789","0.013090000000000046"
"269","0.023322000000000998","0.014165500000000098"
"270","0.007120909090908547","0.01396727272727299"
"271","0.010497692307690333","0.013348461538462185"
"272","0.0187699999999964","0.01644500000000093"
"273","0.014015000000000555","0.012673333333333167"
"274","0.03039615384615283","0.028080769230769374"
"275","0.0025150000000024875","0.02118999999999982"
"276","0.040360000000006835","0.056229999999999336"
"277","0.019675384615389098","0.010030000000000018"
"278","0.023689166666666612","0.035567916666666775"
"279","0.023822500000004965","0.01666250000000069"
"280","0.0","0.0"
"281","0.0","0.0"
"282","0.0","0.0"
"283","0.0","0.0"
"284","0.022154999999999703","0.0168399999999993"
"285","0.01815666666666497","0.016603333333333598"
"286","0.03239000000000445","0.04364599999999967"
"287","0.027480000000001798","0.014266666666666575"
"288","0.0","0.0"
"289","0.013705000000008738","0.02694000000000063"
"290","0.009489999999996002","0.02517999999999887"
"291","0.014259999999993056","0.028809999999998226"
"292","0.01969200000000342","0.018733999999999897"
"293","0.04566999999999647","0.02383333333333404"
"294","0.014356666666665538","0.024370000000001113"
"295","0.008349999999992974","0.042060000000001097"
"296","0.0","0.0"
"297","0.0","0.0"
"298","0.0","0.0"
"299","0.0","0.0"
"300","0.004719999999998947","0.014530000000000598"
"301","0.0","0.0"
"302","0.0","0.0"
"303","0.0","0.0"
"304","0.0","0.0"
"305","0.0","0.0"
"306","0.0","0.0"
"307","0.0","0.0"
"308","0.012779999999992242","0.017569999999999197"
"309","0.005039999999993938","0.013239999999999696"
"310","0.0024249999999987892","0.009390000000000676"
"311","0.009249999999999167","0.015513333333332824"
"312","0.007472500000000437","0.009167499999999773"
"313","0.0","0.0"
"314","0.023820000000011277","0.021957499999999186"
"315","0.007068333333329235","0.015394999999999529"
"316","0.033469999999998175","0.029102857142856462"
"317","0.015488333333332585","0.01369833333333285"
"318","0.9344723076923086","0.23803692307692287"
"319","0.016462857142856637","0.01440678571428571"
"320","0.010010833333337152","0.011052499999999762"
"321","0.013538095238092615","0.018917142857143247"
"322","0.012670500000000829","0.021472999999999763"
"323","0.007181000000001348","0.020587000000000265"
"324","0.014721666666665337","0.02174583333333328"
"325","0.01670961538461641","0.022576538461538467"
"326","0.011407272727271075","0.019696363636363724"
"327","0.0","0.0"
"328","0.0","0.0"
"329","0.0","0.0"
"330","0.0","0.0"
"331","0.006938000000000044","0.005461500000000008"
"332","0.009098222222222773","0.007654666666666622"
"333","0.023577333333332482","0.010171333333333385"
"334","0.009477666666665859","0.00817333333333335"
"335","0.04499999999999815","0.0247900000000012"
"336","0.008193333333334015","0.00573333333333359"
"337","0.0024100000000011335","0.0012399999999974654"
"338","0.030466249999996364","0.01043624999999948"
"339","0.00793833333333597","0.008190000000000216"
"340","0.0024900000000016576","0.004990000000000272"
"341","0.027239999999999265","0.019160000000000177"
"342","0.04856199999999831","0.030351999999999536"
"343","0.014814999999995138","0.009594999999999132"
"344","0.007180000000000557","0.004746666666666381"
"345","0.0033549999999991087","0.003954999999999487"
"346","0.011245000000000616","0.01236999999999977"
"347","0.0","0.0"
"348","0.006680000000002906","0.0013200000000015422"
"349","0.00413999999999722","0.004466666666666915"
"350","9.699999999952524E-4","0.0014900000000004354"
"351","0.004579999999997142","0.008487500000000203"
"352","0.009124999999993832","0.005744999999999223"
"353","0.003404999999997216","0.003277499999999378"
"354","0.008733333333331927","0.010233333333332872"
"355","0.007510000000002038","0.009484000000000136"
"356","0.009279999999996846","0.008476666666666688"
"357","0.01701999999999515","0.02247000000000199"
"358","0.001923333333332759","0.01919333333333384"
"359","0.007083749999998723","0.011203749999999957"
"360","0.027349999999991326","0.025429999999999175"
"361","0.00943285714285683","0.014542857142857255"
"362","0.02280999999997846","0.06361000000000061"
"363","0.031368333333335364","0.02699666666666663"
"364","0.0036044999999983673","0.004409500000000221"
"365","0.013035000000000707","0.010323999999999245"
"366","0.014435000000000286","0.01215833333333336"
"367","0.014072413793104095","0.020707586206896413"
"368","0.012904999999996392","0.014924999999999855"
"369","0.004580000000004247","0.010009999999999408"
"370","0.008226666666667073","0.0087105555555559"
"371","0.05216982142857266","0.2278408928571431"
"372","0.01563884615384563","0.02219076923076915"
"373","0.009066363636360496","0.01254454545454548"
"374","0.0","0.0"
"375","0.0","0.0"
"376","0.0","0.0"
"377","0.0","0.0"
"378","0.04470000000000396","0.01942250000000012"
"379","0.01223583333333352","0.009655833333332234"
"380","0.011203999999999326","0.009380666666667281"
"381","0.008254705882353911","0.008053529411764307"
"382","0.018050000000000184","0.010209285714286207"
"383","0.011160000000003478","0.0050619999999995"
"384","0.008375714285714153","0.0135471428571426"
"385","0.007485454545455058","0.014815909090909362"
"386","0.02322352941176596","0.016407647058823055"
"387","0.0186149999999925","0.01667499999999933"
"388","0.009464444444444177","0.019086666666666474"
"389","0.011076666666659444","0.008836666666666085"
"390","0.010362499999999386","0.027867500000001044"
"391","0.017745000000001454","0.016847500000000792"
"392","0.0","0.0"
"393","0.005022500000000818","0.011239999999999029"
"394","0.004060000000002617","0.024409999999998416"
"395","0.014690000000008752","0.0055500000000030525"
"396","0.007416000000000622","0.011095999999999861"
"397","0.005373333333331232","0.0068716666666658694"
"398","0.005712000000002604","0.0035820000000001072"
"399","0.00726000000000937","0.0034699999999965314"
"400","0.0","0.0"
"401","0.0","0.0"
"402","0.0","0.0"
"403","0.009169999999997458","0.014980000000004878"
"404","0.011320000000004882","0.019320000000000448"
"405","0.0020600000000072782","0.01933000000000007"
"406","0.0","0.0"
"407","0.013823999999999614","0.011078000000000188"
"408","0.002296666666673275","0.012573333333335768"
"409","0.012431874999996317","0.015176249999999447"
"410","0.01234615384615486","0.01723076923076911"
"411","0.005170540540539811","0.010127297297297498"
"412","0.018700434782606804","0.01768434782608584"
"413","0.02222023255813966","0.014878023255813997"
"414","0.04129999999999967","0.020095000000001306"
"415","0.006665882352942109","0.008443529411765424"
"416","0.007278181818183394","0.008008181818182242"
"417","0.007939189189188497","0.011512432432432525"
"418","0.005208728813559368","0.005673898305084462"
"419","0.014985000000002913","0.019799999999996487"
"420","0.03610599999999806","0.02624800000000036"
"421","0.03667000000001508","0.023709999999999454"
"422","0.0","0.0"
"423","0.023426190476191284","0.014630000000000195"
"424","0.019307499999992928","0.010569999999998636"
"425","0.0","0.0"
"426","0.01214333333333332","0.01707333333333268"
"427","0.011226666666666793","0.009686666666667065"
"428","0.018300000000000365","0.009722142857143012"
"429","0.0","0.0"
"430","0.013511500000000787","0.006458999999999726"
"431","0.010698333333333131","0.010053888888889794"
"432","0.012514615384616103","0.009355576923077194"
"433","0.014928666666669461","0.02134333333333321"
"434","0.021328750000001673","0.005505000000001203"
"435","0.007800000000000473","0.007427500000000364"
"436","0.0047060000000065825","0.004355999999997806"
"437","0.02085076923077021","0.017296923076923047"
"438","0.021410000000000668","0.015851666666665782"
"439","0.008792352941177358","0.006764705882353267"
"440","0.004249999999998977","0.005832857142856592"
"441","0.004760000000004538","0.005745000000000999"
"442","0.009925000000006179","0.0020999999999995467"
"443","0.012068000000000722","0.009338000000000336"
"444","0.0","0.0"
"445","0.009415000000000617","0.011474999999999014"
"446","0.003999999999997783","0.010029999999996875"
"447","1.0000000000331966E-4","0.011689999999994427"
"448","0.0","0.0"
"449","0.005469999999995423","0.015539999999997889"
"450","0.005020000000001801","0.018809999999999622"
"451","0.0","0.0"
"452","0.0","0.0"
"453","0.006656666666666903","0.0059333333333325316"
"454","0.006327499999995823","0.01069749999999825"
"455","0.01005714285713972","0.015168571428571198"
"456","0.023198499999999456","0.012060499999999762"
"457","0.02241384615384863","0.013521538461538704"
"458","0.013212857142855836","0.007298571428570203"
"459","0.010028333333334812","0.015097777777778395"
"460","0.015380999999997869","0.02287600000000012"
"461","0.015113999999994122","0.0347360000000009"
"462","0.008962500000000281","0.01680500000000033"
"463","0.010745999999994638","0.014634000000001635"
"464","0.008091785714287576","0.0066417857142858795"
"465","0.012315624999996722","0.011508125000000868"
"466","0.021592941176468164","0.009378823529411348"
"467","0.021201999999996703","0.03414599999999694"
"468","0.014005999999997697","0.02236400000000103"
"469","0.0","0.0"
"470","0.010263157894736847","0.0077263157894738145"
"471","0.03887333333333354","0.014013333333333359"
"472","0.052841500000000076","0.03260950000000005"
"473","0.01729326530612288","0.010943469387755315"
"474","0.018763750000000246","0.014897500000000452"
"475","0.01958113636363629","0.020395681818181834"
"476","0.009287222222222398","0.010442500000000009"
"477","1.4291380000000005","0.021882250000000526"
"478","0.005699696969695701","0.006604242424242385"
"479","0.008905151515150603","0.008180909090909544"
"480","0.010606428571430904","0.008401071428571097"
"481","0.008194444444445873","0.007065555555555708"
"482","0.008614444444442407","0.011956666666667578"
"483","0.010738965517239714","0.011973448275862305"
"484","0.007319333333329562","0.010512666666667532"
"485","0.008818999999999733","0.0055839999999996335"
"486","0.006169999999999713","0.003953333333334068"
"487","0.011984285714283211","0.0077714285714292385"
"488","0.005320000000001812","0.005936000000001229"
"489","0.00620857142857391","0.00635571428571475"
"490","0.004595000000001903","0.004847499999997673"
"491","0.008479999999996934","0.003970000000000695"
"492","0.005158333333332858","0.006714999999999212"
"493","0.005564999999998932","0.0024349999999984107"
"494","0.004767500000003366","0.00316000000000205"
"495","0.015337142857139798","0.006979999999999669"
"496","0.012700000000002376","0.0025250000000003325"
"497","0.011343750000000874","0.0043999999999999595"
"498","0.004451666666664522","0.010025000000000617"
"499","0.0034533333333360222","0.007364444444444729"
"500","0.008381999999996026","0.008954000000000305"
"501","0.01332200000000133","0.0163246666666673"
"502","0.015933888888890222","0.019577777777778336"
"503","0.00966363636363548","0.013340909090908843"
"504","0.006935925925922696","0.0070788888888887996"
"505","0.005945454545455804","0.006518181818181613"
"506","0.017495416666665282","0.010165833333333799"
"507","0.013553999999999178","0.025669199999999677"
"508","0.023486000000002605","0.02330299999999923"
"509","0.011648571428565901","0.014961428571427555"
"510","0.013569047619046024","0.01113571428571464"
"511","0.020998461538465126","0.015819999999999588"
"512","0.022737272727270733","0.015336363636364066"
"513","0.018988235294118534","0.021624999999999703"
"514","0.022292857142856195","0.03049428571428438"
"515","0.007210000000000605","0.007160000000002498"
"516","0.08537999999998647","0.11283000000000243"
"517","0.026455333333333973","0.019552333333333394"
"518","0.020728749999999907","0.016334999999999322"
"519","0.04015735294117645","0.022023529411764997"
"520","0.037823333333333126","0.026280555555555"
"521","0.02532777777777668","0.02397444444444494"
"522","0.01765368421052641","0.01700789473684192"
"523","0.011830416666665844","0.012876666666666647"
"524","0.16812230769230935","0.06276346153846085"
"525","0.007804848484849878","0.007950303030302846"
"526","0.010460555555554288","0.008291111111111051"
"527","0.009658437500000505","0.006222499999999909"
"528","0.007872758620690897","0.009761034482759062"
"529","0.006276875000000404","0.00703874999999865"
"530","0.010211707317071918","0.011256097560976239"
"531","0.007027499999999619","0.006499722222221689"
"532","0.011824545454545284","0.00634681818181836"
"533","0.008487368421052932","0.005262105263157635"
"534","0.008857368421053698","0.004905789473684352"
"535","0.0","0.0"
"536","0.0","0.0"
"537","0.010293333333332674","0.008197499999999932"
"538","0.012356666666666646","0.006648333333332701"
"539","0.009877499999998207","0.007417500000000743"
"540","0.009253750000002725","0.007398749999999232"
"541","0.03445857142856872","0.015138571428571826"
"542","0.012328461538460216","0.007164615384615248"
"543","0.010985454545454005","0.010631818181818757"
"544","0.015489999999998767","0.005782857142856456"
"545","0.009250999999998299","0.00997599999999892"
"546","0.01496999999999981","0.0169066666666667"
"547","0.010785384615385415","0.011982307692307997"
"548","0.012317499999999093","0.005771250000001338"
"549","0.010537857142855347","0.007774999999999517"
"550","0.01185999999999865","0.005322499999997454"
"551","0.01684590909090841","0.016056363636363615"
"552","0.01675636363635843","0.015980000000000286"
"553","0.018321249999997846","0.016196250000000134"
"554","0.0116783333333359","0.009216666666667095"
"555","0.026693333333336493","0.019613333333333927"
"556","0.03527499999999861","0.03819000000000017"
"557","0.026655714285713623","0.005560000000000643"
"558","0.02056166666666807","0.0162383333333338"
"559","0.015657999999997684","0.025787500000000206"
"560","0.031521666666662895","0.06038666666666733"
"561","0.026397500000001628","0.03824000000000005"
"562","0.011271666666663313","0.04297333333333242"
"563","0.0","0.0"
"564","0.015561746031746081","-0.004590634920634705"
"565","0.06604333333333295","-0.0016458333333329023"
"566","0.015112580645161936","-0.013889354838709546"
"567","0.026632727272726617","-0.00874575757575753"
"568","0.018941935483871845","-0.002024999999999893"
"569","0.017214090909091793","0.0050215909090916"
"570","0.015148333333331912","0.014558750000000398"
"571","0.008164999999999978","0.0029769999999999185"
"572","0.009360000000004476","5.700000000015137E-4"
"573","0.010377777777774513","-0.0010888888888887197"
"574","0.032986","-0.0035440000000001247"
"575","0.020355999999999243","-0.012519000000000346"
"576","0.020906499999999006","-0.0045369999999998354"
"577","0.01072612903225735","-0.009988709677419282"
"578","0.014139649122806063","-0.00608157894736849"
"579","0.010198666666667104","-0.005181333333334"
"580","0.017130624999999622","-0.00624874999999947"
"581","0.018047619047618604","-0.00446285714285669"
"582","0.015640800000000468","-0.006806400000000537"
"583","0.009697499999999248","-0.0071568750000003956"
"584","0.010502857142858786","-0.0054814285714291444"
"585","0.007433157894738348","0.003428947368421008"
"586","0.010978214285713201","0.0010071428571426669"
"587","0.006357500000000016","-0.0019093750000009901"
"588","0.009956666666667028","0.0012853333333334642"
"589","0.013962727272727384","0.004985454545453779"
"590","0.007557999999998799","7.270000000005438E-4"
"591","0.00849249999999957","0.007015624999999748"
"592","0.01189166666666767","0.013475833333334167"
"593","0.009714666666668374","0.007252666666665656"
"594","0.05359615384615451","0.0015223076923074513"
"595","0.00352750000000146","0.004981250000000603"
"596","0.01690666666666611","0.014423333333334417"
"597","0.006015999999995358","0.011219000000000534"
"598","0.01331058823529762","-0.005976470588235159"
"599","0.016161818181818045","0.01645409090909085"
"600","0.248738571428574","-0.0051407142857158306"
"601","0.2711589583333325","0.006320208333333133"
"602","0.009922857142858075","0.020987142857143124"
"603","0.0","0.0"
"604","0.0","0.0"
"605","0.0","0.0"
"606","0.028756111111111378","0.024321111111111706"
"607","0.02748115384615674","-0.011636153846154547"
"608","0.0351100000000019","-0.01567833333333457"
"609","0.025430000000000064","0.012930000000000774"
"610","0.0","0.0"
"611","0.021766400000001723","-0.015377200000000216"
"612","0.024726666666670855","-0.13322333333333347"
"613","0.03284352941176603","-0.031185294117646582"
"614","0.01999759036144626","-0.025654939759036082"
"615","0.020821714285713","-0.01877771428571476"
"616","0.015171724137932574","-0.020312068965517495"
"617","0.012369333333333484","-0.009264999999999309"
"618","0.018057777777777853","-0.015782777777777725"
"619","0.016296363636364056","-0.009427272727272718"
"620","0.014497307692307889","-0.012682307692307732"
"621","0.3795318518518524","-0.013156666666666096"
"622","0.010270000000002888","-0.005152499999998117"
"623","0.03178800000000109","-0.017017999999999915"
"624","0.024811666666669414","-0.013398333333333548"
"625","0.0","0.0"
"626","0.012832941176470858","-0.015104705882351844"
"627","0.008729444444444765","-0.0071994444444454485"
"628","0.006787499999997948","-0.01118249999999854"
"629","0.011224615384615678","-0.011086923076923392"
"630","0.013352500000002543","-0.006812499999998778"
"631","0.017756923076921484","-0.008419230769231508"
"632","0.009445294117647052","-0.011162941176470131"
"633","0.012754285714285527","-0.007589999999999415"
"634","0.0098866666666666","-0.005988333333334002"
"635","0.00704874999999916","-0.005497499999999267"
"636","0.016526363636362295","-0.009781818181817992"
"637","0.006022999999999712","-0.009256999999999493"
"638","0.0067560000000000285","-0.015727999999999298"
"639","0.005816666666665545","-0.007556666666668359"
"640","0.008700000000004593","-0.004395000000002369"
"641","0.002997499999997544","-0.004060000000000841"
"642","0.006676000000000215","-0.008017999999999859"
"643","0.007756666666672629","-0.0045750000000002915"
"644","0.003659999999996444","-0.008658461538461691"
"645","0.008887272727272168","-0.017728181818182132"
"646","0.02054368421052812","-0.013094210526315769"
"647","0.013651250000000559","-0.011638750000000364"
"648","0.006626666666666854","-0.011750000000000446"
"649","0.023094999999997867","-0.006970000000000809"
"650","0.011789999999990641","-0.008460000000000653"
"651","0.010109999999983188","-0.0022100000000015996"
"652","0.0","0.0"
"653","0.027759090909093877","-0.03815636363636379"
"654","0.027512857142862605","-0.017809999999999247"
"655","0.02352444444443967","-0.04003888888889091"
"656","0.0","0.0"
"657","0.0","0.0"
"658","0.03094545454545453","-0.011051818181818359"
"659","0.016454285714283756","-0.0451985714285712"
"660","0.010639629629628196","-0.01758777777777762"
"661","0.014725172413795685","-0.011966551724138182"
"662","0.011790600000001615","-0.019413600000000385"
"663","0.013287058823529155","-0.018740294117646467"
"664","0.012563333333333896","-0.013375333333333354"
"665","0.016375000000000917","-0.008445000000000036"
"666","0.004689615384615346","-0.005970769230769745"
"667","0.016819750000000067","-0.012156749999999671"
"668","0.008722499999999809","-0.00922642857142808"
"669","0.007231599999998366","-0.013819600000000066"
"670","0.014432666666667397","-0.009867333333333525"
"671","0.010218000000000593","-0.013138500000000696"
"672","0.012903478260869182","-0.010867391304348217"
"673","0.008915833333333604","-0.00887250000000043"
"674","0.012475714285715003","-0.010752857142858119"
"675","0.015523999999999205","-0.01701399999999964"
"676","0.010228333333335135","-0.009846666666665152"
"677","0.01000379310344798","-0.006387586206896562"
"678","0.013760000000000931","-0.013423333333333589"
"679","0.010662727272728939","-0.006153636363636265"
"680","0.012420666666667064","-0.007726666666667133"
"681","0.01172428571428544","-0.008009285714285497"
"682","0.006438749999997384","-0.010653749999999018"
"683","0.003747500000001125","-0.007337500000000219"
"684","0.009330000000003244","-0.01164333333333308"
"685","0.00811500000000187","-0.0015425000000002242"
"686","0.0","0.0"
"687","0.006963333333331434","-0.011540000000002474"
"688","0.005114999999996428","-0.00469500000000167"
"689","0.006057499999999827","-0.008211250000000447"
"690","0.008977368421049903","-0.008631052631577924"
"691","0.012917500000003912","-0.00830916666666622"
"692","0.013146000000000413","-0.010740999999999801"
"693","0.011191764705884566","-0.01614764705882433"
"694","0.013258333333332928","-0.0062783333333324975"
"695","0.011359999999982051","-0.029290000000003147"
"696","0.009704999999996744","-0.019759999999999778"
"697","0.00209000000000259","-0.01776499999999892"
"698","0.020944999999990443","-0.006784999999998931"
"699","0.024590000000017653","-0.0159599999999962"
"700","0.005994999999991535","-0.012624999999999886"
"701","0.02130000000000128","-0.11686444444444374"
"702","0.02380200000000059","-0.06805299999999939"
"703","0.0","0.0"
"704","0.0","0.0"
"705","0.0","0.0"
"706","0.0","0.0"
"707","0.01457953488372081","-0.009914186046511318"
"708","0.008051529411763285","-0.006854117647058774"
"709","0.010663166666666838","-0.019553333333333357"
"710","0.01204642857142803","-0.025012142857142625"
"711","0.008504705882353329","-0.007732941176470204"
"712","0.0147127777777794","-0.011702500000000468"
"713","0.004898095238095564","-0.011166190476190016"
"714","0.027893703703703525","-0.043156296296296616"
"715","0.015389285714286263","-0.01084928571428583"
"716","0.016784000000001242","-0.02653000000000034"
"717","0.05015833333333338","-0.02277333333333272"
"718","0.013802500000000606","-0.009193749999999667"
"719","0.013800454545454826","-0.02174545454545425"
"720","0.003467500000001067","-0.003480000000001482"
"721","0.008507999999997651","-0.012412000000000489"
"722","0.009432000000002461","-0.013724000000000559"
"723","0.004582499999999712","-0.004922500000001051"
"724","0.004846666666667924","-0.00921666666666828"
"725","0.00190000000000623","-0.0034600000000040154"
"726","0.008098571428572907","-0.007047142857143537"
"727","0.005723999999996465","-0.00956599999999952"
"728","0.0049633333333325425","-0.00230999999999959"
"729","0.0061725000000016905","-0.008440000000001113"
"730","0.011041666666666098","-0.01045166666666771"
"731","0.014009999999991862","-0.011779999999998125"
"732","0.0026000000000081513","-0.012899999999998357"
"733","0.004276666666667002","-0.004169999999997269"
"734","0.0011099999999970578","-0.012899999999998357"
"735","7.000000000090267E-4","-0.006569999999999965"
"736","0.0030524999999990143","-0.005449999999999733"
"737","0.009734285714283633","-0.0074571428571442566"
"738","0.007948235294116009","-0.012828823529411771"
"739","0.010781428571434049","-0.012432857142858467"
"740","0.013036521739133665","-0.008520434782608501"
"741","0.009209000000000836","-0.011822333333333409"
"742","0.007479999999993936","-0.010435000000001082"
"743","0.015599999999996802","-0.008776666666665989"
"744","0.00579000000001173","-0.012680000000001357"
"745","0.0032224999999925785","-0.019032500000000674"
"746","0.015629999999995904","-0.009188000000002462"
"747","0.0068933333333329","-0.01429666666666544"
"748","0.013614615384618936","-0.01673230769230772"
"749","0.00918588235294284","-0.01838470588235285"
"750","0.0","0.0"
"751","0.0","0.0"
"752","0.0","0.0"
"753","0.00857833333333328","-0.009017499999999382"
"754","0.014092333333334314","-0.010428333333333602"
"755","0.03693421487603359","-0.24708235537190013"
"756","0.015069473684208558","-0.011122105263156618"
"757","0.01107259259259263","-0.021069629629628973"
"758","0.00913166666666676","-0.010102222222223074"
"759","0.022361891891891493","-0.0252970270270255"
"760","0.027559999999998877","-0.01902999999999883"
"761","0.007313333333331802","-0.010530000000000447"
"762","0.021235263157894292","-0.02411947368421159"
"763","0.007061249999997354","-0.01301000000000041"
"764","0.005285999999999546","-0.007172000000002754"
"765","0.0","0.0"
"766","0.02172250000000009","-0.11835500000000465"
"767","0.0","0.0"
"768","0.0","0.0"
"769","0.0","0.0"
"770","0.010214999999998753","-0.01254000000000044"
"771","0.00408000000000186","-0.009120000000000536"
"772","0.0067950000000003286","-0.009357499999998353"
"773","0.003570000000003404","-0.01149333333333639"
"774","0.009799999999998477","-0.010939999999990846"
"775","0.0","0.0"
"776","0.0","0.0"
"777","0.0","0.0"
"778","0.0","0.0"
"779","0.0","0.0"
"780","0.0","0.0"
"781","0.0","0.0"
"782","0.0","0.0"
"783","0.009093333333334877","-0.024069999999997965"
"784","0.006884999999989816","-0.009440000000005"
"785","0.004458333333329752","-0.009055000000000035"
"786","0.010733999999996514","-0.00653700000000228"
"787","0.016129999999989764","-0.0033999999999956287"
"788","0.008129729729729218","-0.008688918918917881"
"789","0.012191666666659273","-0.019081666666667257"
"790","0.0026300000000105683","-0.004139999999992483"
"791","0.02919999999998879","-0.006470000000000198"
"792","0.015220000000013556","-0.022609999999993136"
"793","0.012481111111112695","-0.010397777777777308"
"794","0.002776190476188574","-0.006427619047619666"
"795","0.034000000000006025","-0.005269999999995889"
"796","0.01704142857142951","-0.006059999999998971"
"797","0.0","0.0"
"798","0.0","0.0"
"799","0.0","0.0"
"800","0.0","0.0"
"801","0.0","0.0"
"802","0.01736714285714377","-0.029455714285714203"
"803","0.015862820512820435","-0.019071794871795243"
"804","0.015968333333331683","-0.02103833333333406"
"805","0.028706666666667977","-0.021266666666667787"
"806","0.03449499999998551","-0.02285750000000597"
"807","0.01858000000000004","-0.015674999999994554"
"808","0.01045499999999322","-0.05795500000000331"
"809","0.00931624999999947","-0.013560000000000905"
"810","0.016713749999996974","-0.08357625000000013"
"811","0.026287500000003128","-0.0179924999999983"
"812","0.013929999999994891","-0.008139999999997372"
"813","0.024960000000000093","-0.007505000000001871"
"814","0.004889999999999617","-0.007519999999992422"
"815","0.01699499999999432","-0.012564999999998605"
"816","0.0","0.0"
"817","0.0","0.0"
"818","0.0","0.0"
"819","0.004286666666667808","-0.013429999999997241"
"820","0.0","0.0"
"821","0.0","0.0"
"822","0.007425000000001347","-0.002025000000003274"
"823","0.0","0.0"
"824","0.0","0.0"
"825","0.0","0.0"
"826","0.0","0.0"
"827","0.0","0.0"
"828","0.0","0.0"
"829","0.0","0.0"
"830","0.005813999999998032","-0.019241999999998427"
"831","0.0","0.0"
"832","0.805894893617023","-0.02379638297872363"
"833","0.008765652173912526","-0.007390869565217019"
"834","0.006919230769231997","-0.011183076923076603"
"835","0.009976428571428744","-0.010699999999999932"
"836","0.33593419354838766","-0.38540677419355013"
"837","0.011562727272727164","-0.008379090909090533"
"838","0.018490000000002737","-0.014943999999998426"
"839","0.011753749999998675","-0.008895000000001652"
"840","0.00966285714285878","-0.010984285714285542"
"841","0.20838304347826284","-0.20431217391304526"
"842","0.04933999999999609","-0.02305666666666421"
"843","0.019832857142861014","-0.017747142857145497"
"844","0.0","0.0"
"845","0.0","0.0"
"846","0.0","0.0"
"847","0.0","0.0"
"848","0.0","0.0"
"849","0.00968249999999884","-0.01798300000000026"
"850","0.012344285714277703","-0.013925714285712891"
"851","0.0","0.0"
"852","0.019676666666666637","-0.013213333333332855"
"853","0.030195000000000194","-0.023872500000001295"
"854","0.04460875000000053","-0.02845875000000042"
"855","0.022284999999999517","-0.015291666666667444"
"856","0.019854999999999734","-0.018375999999999948"
"857","0.0013666666666682186","-0.016140000000002413"
"858","0.15820000000000078","-0.22650999999999755"
"859","0.02934090909090934","-0.029902727272725308"
"860","0.0038100000000014234","-0.007224999999998261"
"861","0.0","0.0"
"862","0.0","0.0"
"863","0.0","0.0"
"864","0.0","0.0"
"865","0.007595000000002017","-0.017834999999998047"
"866","0.0","0.0"
"867","0.0","0.0"
"868","0.0","0.0"
"869","0.0","0.0"
"870","0.0","0.0"
"871","0.0","0.0"
"872","0.0","0.0"
"873","0.0","0.0"
"874","0.0","0.0"
"875","0.0","0.0"
"876","0.0","0.0"
"877","0.0","0.0"
"878","0.0","0.0"
"879","0.002305882352939146","-0.005217058823530649"
"880","0.027215454545456777","-0.015078181818180719"
"881","0.005872499999998837","-0.029507499999997577"
"882","0.02311000000001684","-0.012110000000006949"
"883","0.012285454545455175","-0.010724545454545426"
"884","0.008141111111108835","-0.007357777777775552"
"885","0.012259354838711774","-0.011168387096774042"
"886","0.004845000000000728","-0.005559166666666708"
"887","0.013840909090909938","-0.015356363636364279"
"888","0.009294999999998055","-0.018622500000001097"
"889","0.010052857142860765","-0.025727142857142837"
"890","0.004429999999985057","-0.00683000000000078"
"891","0.0","0.0"
"892","0.0","0.0"
"893","0.0","0.0"
"894","0.0","0.0"
"895","0.0","0.0"
"896","0.0","0.0"
"897","0.0","0.0"
"898","0.0","0.0"
"899","0.0","0.0"
"900","0.0","0.0"
"901","0.009460000000002466","-0.04968499999999665"
"902","0.01565499999999531","-0.012970000000002813"
"903","0.012524999999999231","-0.012272499999999908"
"904","0.012869999999999493","-0.027149999999998897"
"905","0.0","0.0"
"906","0.014169999999999508","-0.030382857142855966"
"907","0.022254999999997693","-0.012039999999995388"
"908","0.01645666666666301","-0.004730000000002121"
"909","0.0","0.0"
"910","0.0","0.0"
"911","0.014956666666667692","-0.01712000000000084"
"912","0.0","0.0"
"913","0.0","0.0"
"914","0.0","0.0"
"915","0.0","0.0"
"916","0.0","0.0"
"917","0.0","0.0"
"918","0.0","0.0"
"919","0.0","0.0"
"920","0.0","0.0"
"921","0.0","0.0"
"922","0.0","0.0"
"923","0.0","0.0"
"924","0.0","0.0"
"925","0.0","0.0"
"926","0.005968857142856824","-0.008200000000000379"
"927","0.0","0.0"
"928","0.0","0.0"
"929","0.021444999999997567","-0.022283333333332916"
"930","0.017865454545456447","-0.019249090909090164"
"931","0.005588399999999751","-0.006349199999999655"
"932","0.0019019999999983384","-0.014900000000001513"
"933","0.008292000000000143","-0.01227400000000074"
"934","0.008044999999998796","-0.015464444444442825"
"935","0.009312857142857314","-0.013942857142856115"
"936","0.00764133333333253","-0.013294666666666425"
"937","0.0020999999999986585","-0.01083500000000015"
"938","0.0","0.0"
"939","0.0","0.0"
"940","0.0","0.0"
"941","0.0","0.0"
"942","0.0","0.0"
"943","0.0","0.0"
"944","0.0","0.0"
"945","0.0","0.0"
"946","0.0","0.0"
"947","0.0","0.0"
"948","0.0","0.0"
"949","0.011209999999991282","-0.001310000000003697"
"950","0.012930000000011432","-0.009710000000005437"
"951","0.018277499999999947","-0.04544250000000005"
"952","0.00751499999999794","-0.04791999999999774"
"953","0.0","0.0"
"954","0.0","0.0"
"955","0.0","0.0"
"956","0.01817333333333219","-0.024943333333330504"
"957","0.0037333333333341065","-0.02096999999999838"
"958","0.011959999999994864","-0.025145000000005524"
"959","4.400000000046589E-4","-0.03687999999999647"
"960","0.0","0.0"
"961","0.0","0.0"
"962","0.0","0.0"
"963","0.0","0.0"
"964","0.0","0.0"
"965","0.0","0.0"
"966","0.0","0.0"
"967","0.0","0.0"
"968","0.0","0.0"
"969","0.0","0.0"
"970","0.0","0.0"
"971","0.0","0.0"
"972","0.0","0.0"
"973","0.0","0.0"
"974","0.0","0.0"
"975","0.0","0.0"
"976","0.0","0.0"
"977","0.004100000000022419","-0.327849999999998"
"978","0.0","0.0"
"979","0.0","0.0"
"980","0.009824285714283778","-0.0076000000000005586"
"981","0.011287500000003448","-0.027026250000000474"
"982","0.0035650000000018167","-0.004154999999997244"
"983","0.005400000000008731","-0.0014399999999952229"
"984","0.0","0.0"
"985","0.0","0.0"
"986","0.0","0.0"
"987","0.0","0.0"
"988","0.0","0.0"
"989","0.0","0.0"
"990","0.0","0.0"
"991","0.0","0.0"
"992","0.0","0.0"
"993","0.0","0.0"
"994","0.0","0.0"
"995","0.0","0.0"
"996","0.0","0.0"
"997","0.02498333333333373","-0.010143333333334207"
"998","0.0","0.0"
"999","0.0","0.0"
"1000","0.0","0.0"
"1001","0.0","0.0"
"1002","0.0","0.0"
"1003","0.0","0.0"
"1004","0.0","0.0"
"1005","0.0","0.0"
"1006","0.0","0.0"
"1007","0.0","0.0"
"1008","0.0","0.0"
"1009","0.0","0.0"
"1010","0.0","0.0"
"1011","0.0","0.0"
"1012","0.0","0.0"
"1013","0.0","0.0"
"1014","0.0","0.0"
"1015","0.0","0.0"
"1016","0.0","0.0"
"1017","0.0","0.0"
"1018","0.0","0.0"
"1019","0.0","0.0"
"1020","0.0","0.0"
"1021","0.0","0.0"
"1022","0.0","0.0"
"1023","0.0","0.0"
"1024","0.0","0.0"
"1025","0.0","0.0"
"1026","0.0","0.0"
"1027","0.015339999999994802","-0.015337500000004667"
"1028","0.012204999999990918","-0.012950000000001793"
"1029","0.012925000000009845","-0.009295000000008713"
"1030","0.00535312500000007","-0.007880625000001196"
"1031","0.0","0.0"
"1032","0.0","0.0"
"1033","0.0","0.0"
"1034","0.0","0.0"
"1035","0.0","0.0"
"1036","0.0","0.0"
"1037","0.0","0.0"
"1038","0.0","0.0"
"1039","0.0","0.0"
"1040","0.0","0.0"
"1041","0.0","0.0"
"1042","0.0","0.0"
"1043","0.0","0.0"
"1044","0.0","0.0"
"1045","0.02407999999999788","-0.019684999999999064"
"1046","0.015844999999998777","-0.022290000000001697"
"1047","0.0","0.0"
"1048","0.0","0.0"
"1049","0.0","0.0"
"1050","0.006520000000008963","-0.01381000000000654"
"1051","0.0","0.0"
"1052","0.0","0.0"
"1053","0.0","0.0"
"1054","0.0","0.0"
"1055","0.0","0.0"
"1056","0.0","0.0"
"1057","0.0","0.0"
"1058","0.0","0.0"
"1059","0.0","0.0"
"1060","0.0","0.0"
"1061","0.0","0.0"
"1062","0.0","0.0"
"1063","0.0","0.0"
"1064","0.0","0.0"
"1065","0.0","0.0"
"1066","0.0","0.0"
"1067","0.0","0.0"
"1068","0.0","0.0"
"1069","0.0","0.0"
"1070","0.0","0.0"
"1071","0.0","0.0"
"1072","0.0","0.0"
"1073","0.0","0.0"
"1074","0.0","0.0"
"1075","0.0","0.0"
"1076","0.0","0.0"
"1077","0.0","0.0"
"1078","0.0","0.0"
"1079","0.0","0.0"
"1080","0.0","0.0"
"1081","0.0","0.0"
"1082","0.0","0.0"
"1083","0.0","0.0"
"1084","0.0","0.0"
"1085","0.0","0.0"
"1086","0.0","0.0"
"1087","0.0","0.0"
"1088","0.0","0.0"
"1089","0.0","0.0"
"1090","0.0","0.0"
"1091","0.0","0.0"
"1092","0.0","0.0"
"1093","6.300000000152295E-4","-0.02218000000000586"
"1094","0.018926666666663056","-0.034223333333332086"
"1095","0.00528500000000065","-0.0071499999999993236"
"1096","0.006519999999998305","-0.006374999999998465"
"1097","0.00204000000000093","-0.01080999999999932"
"1098","0.0","0.0"
"1099","0.0","0.0"
"1100","0.0","0.0"
"1101","0.0","0.0"
"1102","0.0","0.0"
"1103","0.0","0.0"
"1104","0.0","0.0"
"1105","0.0","0.0"
"1106","0.0","0.0"
"1107","0.0","0.0"
"1108","0.0","0.0"
"1109","0.0","0.0"
"1110","0.0","0.0"
"1111","0.0","0.0"
"1112","0.0","0.0"
"1113","0.0","0.0"
"1114","0.0","0.0"
"1115","0.0","0.0"
"1116","0.0","0.0"
"1117","0.0","0.0"
"1118","0.0","0.0"
"1119","0.0","0.0"
"1120","0.0","0.0"
"1121","0.0","0.0"
"1122","0.0","0.0"
"1123","0.0","0.0"
"1124","0.0","0.0"
"1125","0.0","0.0"
"1126","0.0","0.0"
"1127","0.0","0.0"
"1128","0.0","0.0"
"1129","0.0","0.0"
"1130","0.0","0.0"
"1131","0.0","0.0"
"1132","0.0","0.0"
"1133","0.0","0.0"
"1134","0.0","0.0"
"1135","0.0","0.0"
"1136","0.0","0.0"
"1137","0.0","0.0"
"1138","0.0","0.0"
"1139","0.0","0.0"
"1140","0.0","0.0"
"1141","0.0","0.0"
"1142","0.0","0.0"
"1143","0.0","0.0"
"1144","0.0","0.0"
"1145","0.0","0.0"
"1146","0.0","0.0"
"1147","0.0","0.0"
"1148","0.0","0.0"
"1149","0.0","0.0"
"1150","0.0","0.0"
"1151","0.0","0.0"
"1152","0.0","0.0"
"1153","0.0","0.0"
"1154","0.0","0.0"
"1155","0.0","0.0"
"1156","0.0","0.0"
"1157","0.0","0.0"
"1158","0.0","0.0"
"1159","0.0","0.0"
"1160","0.0","0.0"
"1161","0.0","0.0"
"1162","0.0","0.0"
"1163","0.0","0.0"
"1164","0.0","0.0"
"1165","0.0","0.0"
"1166","0.0","0.0"
"1167","0.0","0.0"
"1168","0.0","0.0"
"1169","0.0","0.0"
"1170","0.0","0.0"
"1171","0.0","0.0"
"1172","0.0","0.0"
"1173","0.0","0.0"
"1174","0.0","0.0"
