"cell_id","acc_x","acc_y"
"0","0.0","0.0"
"1","0.0","0.0"
"2","-0.0031793684210519755","0.004060421052631581"
"3","-0.004847012987013551","0.005560909090909083"
"4","-0.004877403846153081","0.005520528846153839"
"5","-0.0062826315789471805","0.004848684210526293"
"6","-0.005082297297298324","0.005003513513513505"
"7","-0.009657391304347762","0.007699130434782624"
"8","-0.01269000000000157","0.007416666666666701"
"9","-0.007616666666663718","0.00890166666666655"
"10","-0.013431000000002769","0.014575999999999922"
"11","-0.017270000000002433","0.017928571428571422"
"12","-0.015876666666666414","0.011548888888888886"
"13","-0.022889999999998","0.018168235294117617"
"14","-0.016185161290321718","0.008665161290322562"
"15","-0.012501666666668262","0.016178333333333295"
"16","-0.006235000000000213","0.007087499999999969"
"17","-0.0034066666666679644","0.005083333333333255"
"18","-0.004056666666670594","0.003769999999999977"
"19","-0.0014399999999952229","0.00407000000000024"
"20","0.0","0.0"
"21","0.0","0.0"
"22","0.0","0.0"
"23","0.0","0.0"
"24","0.0","0.0"
"25","-0.012929999999997221","0.010629999999999695"
"26","0.0","0.0"
"27","-0.02491000000000554","0.006170000000000009"
"28","0.0","0.0"
"29","0.0","0.0"
"30","0.0","0.0"
"31","0.0","0.0"
"32","-0.009215000000004636","0.02697499999999997"
"33","0.0","0.0"
"34","0.0","0.0"
"35","0.0","0.0"
"36","0.0","0.0"
"37","0.0","0.0"
"38","0.0","0.0"
"39","0.0","0.0"
"40","0.0","0.0"
"41","0.0","0.0"
"42","0.0","0.0"
"43","0.0","0.0"
"44","0.0","0.0"
"45","0.0","0.0"
"46","0.0","0.0"
"47","0.0","0.0"
"48","-0.0038043750000023024","0.00477625000000001"
"49","-0.008306470588235455","0.01276529411764699"
"50","-0.010545463917525906","0.013436597938144336"
"51","-0.0108621568627453","0.01320941176470584"
"52","-0.00832838709677469","0.007434516129032378"
"53","-0.011224400000000684","0.007255599999999962"
"54","-0.010463939393939704","0.01116636363636365"
"55","-0.010240909090909205","0.008304545454545538"
"56","-0.008447692307692788","0.007467692307692278"
"57","-0.010055833333333672","0.008680833333333323"
"58","-0.015612222222225667","0.011742222222222222"
"59","-0.017770312500000718","0.021633749999999966"
"60","-0.018885555555555475","0.010668888888888863"
"61","0.0","0.0"
"62","0.0","0.0"
"63","-0.002329999999993504","0.002909999999999524"
"64","-0.012574999999994674","0.0266249999999999"
"65","-0.007480000000004594","0.008870000000000156"
"66","-0.01884499999999889","0.03336500000000009"
"67","-0.001150000000002649","0.006189999999999918"
"68","-0.013660000000008665","0.026679999999999815"
"69","-0.006284000000002265","0.010085999999999906"
"70","-0.01649999999999352","0.00775000000000059"
"71","-0.004110000000000724","0.011990000000000167"
"72","-0.006814999999999571","0.017514999999999947"
"73","-0.00729249999999837","0.008202500000000001"
"74","-0.1358900000000034","0.08535000000000004"
"75","-0.003959999999992192","0.008050000000000335"
"76","0.0","0.0"
"77","-0.019729999999995584","0.019589999999999996"
"78","-0.0029149999999980025","0.025254999999999805"
"79","-0.017125000000007162","0.021535000000000304"
"80","0.0","0.0"
"81","-0.004225999999999885","0.003073999999999977"
"82","-0.0034450000000039913","0.009431666666666727"
"83","0.0","0.0"
"84","0.0","0.0"
"85","0.0","0.0"
"86","0.0","0.0"
"87","0.0","0.0"
"88","0.0","0.0"
"89","0.0","0.0"
"90","0.0","0.0"
"91","0.0","0.0"
"92","0.0","0.0"
"93","0.0","0.0"
"94","0.0","0.0"
"95","-0.01626333333333226","0.019509999999999767"
"96","-0.01305199999999959","0.02152299999999996"
"97","-0.008737500000000065","0.02305499999999988"
"98","-0.005332777777780715","0.008139999999999913"
"99","-0.015971666666666766","0.015032222222222434"
"100","-0.0105081818181811","0.015909090909090973"
"101","-0.012554999999996496","0.011237999999999904"
"102","-0.006288888888886469","0.015319444444444318"
"103","-0.015661600000001812","0.013280400000000015"
"104","-0.015461764705884248","0.018298823529411583"
"105","-0.014938461538460337","0.01050384615384627"
"106","-0.01256090909090995","0.011716818181818215"
"107","-0.018265263157895662","0.016998421052631378"
"108","-0.01425785714285434","0.01883785714285719"
"109","-0.016271428571428714","0.01699214285714274"
"110","-0.006566000000003669","0.022590999999999715"
"111","-0.015590000000001325","0.012662499999999799"
"112","-0.008296666666664029","0.003486666666666712"
"113","-0.007032500000002884","0.014915000000000012"
"114","-0.0054899999999982185","0.00520666666666673"
"115","-0.008513333333328413","0.009980000000000247"
"116","-0.008245000000001093","0.007384999999999901"
"117","-0.005784999999997709","0.012245000000000061"
"118","-0.005147999999998376","0.010592000000000112"
"119","-0.006069999999997577","0.01294000000000084"
"120","-0.00887000000000171","0.002463333333332448"
"121","-0.00803499999999957","0.013634999999999842"
"122","-0.00744500000000059","0.005952500000000249"
"123","-0.0037499999999994317","0.012921999999999656"
"124","-0.00555166666666788","0.012048333333333291"
"125","-0.0040266666666634405","0.010690000000000607"
"126","-0.013372499999995568","0.00689250000000019"
"127","-0.008915000000001783","0.011875000000000302"
"128","-0.017279999999994782","0.011093333333333177"
"129","-0.004381428571426633","0.005321428571428731"
"130","0.0","0.0"
"131","0.0","0.0"
"132","0.0","0.0"
"133","0.0","0.0"
"134","0.0","0.0"
"135","-0.04335999999999274","0.013970000000000482"
"136","0.0","0.0"
"137","-0.015207999999998379","0.01618000000000013"
"138","-0.0256699999999991","0.025014285714285656"
"139","0.0","0.0"
"140","0.0","0.0"
"141","0.0","0.0"
"142","-0.024771666666661307","0.025514999999999954"
"143","-0.02184200000000131","0.028388666666666573"
"144","-0.005704999999990523","0.014054999999999485"
"145","-0.0048884615384602575","0.01099846153846158"
"146","-0.007770999999994821","0.011843000000000093"
"147","-0.006463571428568952","0.00822857142857141"
"148","-0.01858999999999759","0.01671666666666649"
"149","-0.00890499999999772","0.00677999999999992"
"150","-0.014212352941180317","0.009879999999999785"
"151","-0.009823636363634914","0.011889090909090799"
"152","-0.007225384615385184","0.012199999999999921"
"153","-0.017389999999999874","0.017354090909091013"
"154","-0.011227966101694008","0.013571864406779694"
"155","-0.01968749999999808","0.015681666666666594"
"156","-0.010577500000000128","0.010054999999999481"
"157","-0.011051250000000401","0.009343749999999873"
"158","-0.005126153846153814","0.005557692307692268"
"159","-0.006567142857140392","0.004854285714285541"
"160","-0.004935714285715724","0.007527142857142621"
"161","-0.00607000000000113","0.003917499999999574"
"162","-0.007787999999996487","0.005986000000000047"
"163","-0.003936000000001627","0.008789999999999765"
"164","-0.008310000000000173","0.004718000000000266"
"165","-0.006380000000000052","0.005739999999999412"
"166","-0.005000000000000189","0.00578666666666668"
"167","-0.00794000000000139","0.012529999999999486"
"168","-0.0057000000000034644","0.003919999999999797"
"169","-0.005400000000001626","0.007303333333333069"
"170","-0.05208000000000131","0.0041133333333333395"
"171","-0.03975000000000032","0.014210000000000278"
"172","-0.008275714285714133","0.021152857142856973"
"173","-0.0060866666666612446","0.006403333333333094"
"174","-0.0069900000000089335","0.002294999999999714"
"175","-0.009321428571429433","0.014484285714285759"
"176","-0.008670000000002821","0.003011818181818171"
"177","-0.01373500000000405","0.01587249999999929"
"178","-0.01746000000000218","0.018486666666666835"
"179","-0.010159999999999059","0.014793749999999717"
"180","-0.010622500000003754","0.00916500000000009"
"181","-0.006828181818178791","0.019663636363636237"
"182","-0.017501875000002443","0.01112437500000002"
"183","-0.011602142857146955","0.008930714285714141"
"184","-0.01570666666666823","0.014816190476190432"
"185","-0.016597857142855332","0.020748571428571654"
"186","0.0","0.0"
"187","0.0","0.0"
"188","0.0","0.0"
"189","-0.017776999999995845","0.022800999999999672"
"190","-0.024789999999999424","0.025618181818181703"
"191","0.0","0.0"
"192","-0.005990000000001736","0.007962727272727317"
"193","-0.0074846666666681235","0.009490666666666788"
"194","-0.013533749999998124","0.02196250000000055"
"195","-0.010790499999998638","0.005059499999999906"
"196","-0.015148571428571955","0.00903142857142861"
"197","-0.02184909090909218","0.011287272727273357"
"198","-0.0186950000000022","0.021430000000000504"
"199","-0.011763636363637047","0.014320909090909207"
"200","-0.01600739130434501","0.024494782608695788"
"201","-0.012613529411765759","0.018435294117646727"
"202","-0.011578965517240745","0.007319655172413922"
"203","-0.02096599999999782","0.018565999999999507"
"204","-0.01962833333333336","0.026061666666667094"
"205","-0.012455000000000993","0.01208499999999968"
"206","-0.010849999999997806","0.048100000000001586"
"207","-0.004022000000000503","0.007632000000000261"
"208","-0.004387499999996436","0.004082499999999545"
"209","-0.008319999999997663","0.012819999999997833"
"210","0.0","0.0"
"211","-0.004730000000002121","0.0035500000000023846"
"212","-0.005539999999998694","0.0024166666666669556"
"213","-0.004260000000000572","0.005948888888888486"
"214","-0.0034999999999989484","0.0055475000000000385"
"215","-0.006460000000007682","0.006359999999999921"
"216","-0.06459999999999866","0.004690000000000083"
"217","-0.009515999999996439","0.013576000000000832"
"218","-0.005808749999998142","0.01510250000000024"
"219","-0.008853333333327384","0.025980000000000558"
"220","-0.03637833333333281","0.014673333333333835"
"221","-0.01551333333332631","0.029049999999999798"
"222","-0.023460000000002066","0.027017142857142597"
"223","-0.024300000000005186","0.033127999999999956"
"224","-0.013678571428572792","0.008494285714285153"
"225","-0.01072066666666937","0.012960666666666754"
"226","-0.0131299999999983","0.024876521739130214"
"227","-0.012384117647060829","0.024295882352941073"
"228","-0.021496923076925283","0.012394615384615247"
"229","-0.008298800000000028","0.011403199999999778"
"230","-0.019107999999999948","0.02021533333333316"
"231","-0.01142351851851731","0.010432962962963086"
"232","-0.014316190476191894","0.01594238095238078"
"233","-0.008219999999980132","0.029170000000000584"
"234","0.0","0.0"
"235","0.0","0.0"
"236","-0.024758999999996423","0.022762999999999776"
"237","-0.021485555555552822","0.020795555555555803"
"238","-0.04803000000000024","0.04887999999999959"
"239","-0.009427999999996394","0.022705999999999803"
"240","-0.01868111111111068","0.011604444444444282"
"241","-0.009291666666671361","0.011023333333332275"
"242","-1.1950388888888883","0.624278888888889"
"243","-0.011460000000001611","0.009742857142857275"
"244","-0.014219285714282595","0.011578571428571343"
"245","-0.010049999999997006","0.00961250000000069"
"246","-0.011284285714287887","0.011754285714286081"
"247","-0.01041222222222318","0.01798666666666726"
"248","-0.01927461538461646","0.030465384615384394"
"249","-0.007570000000000713","0.01131599999999994"
"250","-0.019549047619047855","0.016530952380952257"
"251","-0.04613727272727595","0.03353363636363582"
"252","-0.012492499999997797","0.015402500000000652"
"253","0.0","0.0"
"254","-0.013373999999997466","0.013986000000000231"
"255","-1.9999999999953388E-4","0.0011399999999994748"
"256","-0.012609999999998678","0.012920000000000265"
"257","-0.007147500000000306","0.005761249999999718"
"258","-0.009461666666665517","0.005000000000000486"
"259","-0.009446666666669046","0.005469999999998383"
"260","-0.009235000000001214","0.008731249999999413"
"261","-0.007738333333333476","0.006404999999999994"
"262","-0.006989090909090511","0.012978181818181738"
"263","-0.0072290000000002404","0.005299999999999905"
"264","-0.00723111111111368","0.0060100000000002434"
"265","-0.008441666666665052","0.010265833333333122"
"266","-0.014099999999999113","0.0096222222222221"
"267","-0.015838666666669592","0.004740000000000322"
"268","-0.11942900000000023","0.35823449999999973"
"269","-0.006084347826087389","0.004554782608695679"
"270","-0.007012500000000976","0.0075825000000000475"
"271","-0.009937999999997942","0.01050600000000003"
"272","-0.013017499999997758","0.00819833333333353"
"273","-0.014330000000000117","0.013726000000000009"
"274","-0.023553043478263872","0.01697217391304345"
"275","-0.00993499999999988","0.010400416666666542"
"276","-0.012380674157303784","0.010625056179775296"
"277","-0.011465106382976903","0.0115191489361702"
"278","-0.01557108108107933","0.02095081081081054"
"279","-0.020305624999998884","0.01654062500000042"
"280","-0.036979999999997425","0.027495000000000342"
"281","0.0","0.0"
"282","0.0","0.0"
"283","-0.02854615384615065","0.027439230769231153"
"284","-0.027182499999999665","0.028092500000000076"
"285","-0.010261666666668242","0.02466333333333341"
"286","-0.0043306666666676815","0.010661333333332952"
"287","-0.0093075000000018","0.015317499999999429"
"288","-0.01650999999999847","0.02024499999999918"
"289","-0.011494285714287298","0.01223285714285741"
"290","-0.010298571428571332","0.018315714285714435"
"291","-0.02374000000000631","0.015980000000001215"
"292","-0.033289999999999154","0.017239999999999256"
"293","-0.026454999999998563","0.02430000000000021"
"294","-0.03892333333333298","0.01909333333333348"
"295","-0.015162999999995107","0.018915000000000504"
"296","-0.04350250000000244","0.026150000000001228"
"297","-0.022476666666669587","0.01407000000000084"
"298","-0.01199499999999909","0.015226874999999973"
"299","-0.014248888888887498","0.016782777777777765"
"300","0.0","0.0"
"301","-0.00561166666666324","0.008401666666666566"
"302","-0.013720000000001065","0.007929999999999549"
"303","-0.005817142857143917","0.007381428571428523"
"304","-0.007704999999999273","0.011948000000000292"
"305","-0.0066033333333237465","0.004823333333333697"
"306","-0.0038620000000022968","0.01696199999999983"
"307","-0.008120000000001681","0.006590000000000984"
"308","-0.003860000000003083","0.010660000000000114"
"309","-0.01359599999999972","0.01397800000000018"
"310","-0.016339999999999577","0.008765000000000356"
"311","-0.013617500000000504","0.009370000000000545"
"312","-0.007337500000001995","0.008839999999999737"
"313","-0.008551000000001353","0.005280999999999913"
"314","-0.008339999999998682","0.007400000000000073"
"315","-0.013953823529412128","0.00967147058823545"
"316","-0.011979230769233377","0.010646923076923106"
"317","-0.011149333333331886","0.00867466666666689"
"318","-0.01064696969696916","0.012545454545454537"
"319","-0.013315999999998747","0.007953714285713889"
"320","-0.01172000000000072","0.015957272727272744"
"321","-0.00811461538461563","0.006260000000000359"
"322","-0.010398695652173976","0.012749130434782817"
"323","-0.012774999999998437","0.014374999999999995"
"324","-0.011713103448275907","0.012782241379310343"
"325","-0.009120399999999146","0.0060781333333334445"
"326","-0.004137142857142554","0.005219999999999304"
"327","-0.046504999999996244","0.02889833333333384"
"328","0.0","0.0"
"329","-0.025684999999999958","0.009804999999997399"
"330","-0.03976999999999756","0.03000363636363607"
"331","-0.03276750000000295","0.026152500000001133"
"332","-0.008005999999999958","0.019244000000000483"
"333","-0.010600833333330803","0.016291666666666742"
"334","-0.04986749999999951","0.0534400000000006"
"335","-0.002126666666666092","0.009639999999999796"
"336","0.0","0.0"
"337","-0.0018900000000008355","0.006857500000000627"
"338","-0.016220000000000567","0.01579500000000067"
"339","-0.002480000000002036","2.300000000001745E-4"
"340","-0.032039999999997626","0.012567499999999843"
"341","0.0","0.0"
"342","-0.0029800000000044236","0.01608000000000054"
"343","-0.018523999999998608","0.018042000000000512"
"344","-0.012056666666664976","0.012703333333333214"
"345","-0.004420000000003199","0.04237000000000002"
"346","-0.01209857142857272","0.018747142857142407"
"347","-0.01127999999999929","0.005150000000000432"
"348","-0.010276666666669598","0.010863333333334188"
"349","-0.0030000000000001137","0.011160000000002057"
"350","-0.0028949999999987597","0.012774999999998649"
"351","-0.0073100000000039245","0.03028999999999904"
"352","-0.013037142857143635","0.008387142857143053"
"353","-0.006123333333333629","0.013518333333333446"
"354","-0.0055462500000036385","0.010370000000000434"
"355","-0.006022857142856505","0.01113857142857176"
"356","-0.029009999999999536","0.00929000000000002"
"357","-0.006410000000002469","0.005784999999999485"
"358","-0.005809230769230567","0.006898461538461503"
"359","-0.00944529411764747","0.010014705882352693"
"360","-0.008126666666666912","0.00196666666666682"
"361","-0.009680909090907878","0.008351818181818354"
"362","-0.007824375000000217","0.011864374999999816"
"363","-0.013910999999999518","0.009082999999999685"
"364","-0.01865187500000154","0.011971874999999632"
"365","-0.024226818181817447","0.01464000000000047"
"366","-0.010961999999996882","0.009102666666666436"
"367","-0.017106249999998546","0.012402500000000427"
"368","-0.00754450000000233","0.01970750000000008"
"369","-0.041597906976744065","0.45988767441860506"
"370","-0.01366246153846388","0.011769384615384728"
"371","-0.0128381818181809","0.01393327272727276"
"372","-0.02338818181818016","0.058730606060606115"
"373","-0.02621640000000241","0.04299479999999996"
"374","-0.036503750000003166","0.016971249999999882"
"375","0.0","0.0"
"376","-0.20446083333333456","0.3571158333333334"
"377","-0.05743333333333093","0.027947777777778054"
"378","-0.02553333333333521","0.03143888888888845"
"379","-0.017809999999998993","0.012860000000001648"
"380","-0.00868477678571499","0.006513883928571528"
"381","-0.019444736842103794","0.012115263157894941"
"382","-0.0021175000000002164","0.0010449999999986304"
"383","0.0","0.0"
"384","0.0","0.0"
"385","0.0","0.0"
"386","-0.03956999999999766","0.01274999999999693"
"387","-0.003010000000003288","0.005320000000001102"
"388","-0.018516666666669106","0.017786666666667134"
"389","-0.01841500000000007","0.01523999999999992"
"390","-0.004010000000008063","6.600000000034356E-4"
"391","-0.043779999999999576","0.027571999999999975"
"392","-0.0052400000000005775","0.006363333333333425"
"393","-0.0047100000000028786","0.00467000000000013"
"394","-0.016813333333336306","0.006656666666668087"
"395","0.0","0.0"
"396","-0.009046666666662873","0.012049999999996194"
"397","-0.009858333333332562","0.022524999999999313"
"398","-0.003621666666666338","0.005245000000000388"
"399","-0.015200000000000102","0.008059999999999512"
"400","-0.02736000000000871","0.015080000000001093"
"401","-0.019225000000002268","0.005775000000003416"
"402","-0.00658750000000019","0.007784999999999265"
"403","-0.011227500000002166","0.0019999999999988916"
"404","-0.007313333333333579","0.01067333333333309"
"405","-0.006274999999998698","0.0027899999999974057"
"406","-0.013900909090912189","0.017452727272727356"
"407","-0.020781250000002416","0.019066249999998952"
"408","-0.011845714285719566","0.011661428571428394"
"409","-0.009230000000000398","0.003726666666666863"
"410","-0.016621481481482507","0.012555185185184885"
"411","-0.03026736842105337","0.019577894736842513"
"412","-0.01930200000000184","0.008901999999999789"
"413","-0.0162249999999986","0.0214656249999996"
"414","-0.010665999999999088","0.010116000000000725"
"415","-0.02002799999999354","0.016144000000002025"
"416","-0.09377517241379203","0.13369620689655146"
"417","-0.03411303030303087","0.03865545454545448"
"418","-0.3039165217391305","0.26670797101449223"
"419","-0.016151290322583126","0.0074058064516128565"
"420","-0.011641428571428221","0.009961428571428718"
"421","-0.043125555555554404","0.04651111111111225"
"422","0.0","0.0"
"423","0.0","0.0"
"424","-0.01689714285714063","0.02869285714285676"
"425","-0.031307142857142596","0.020785714285715073"
"426","-0.018761666666666937","0.01740333333333351"
"427","-0.02096473684210543","0.013152631578948316"
"428","-0.013835312499998809","0.008469687499999878"
"429","-0.03795000000000037","0.0032549999999993418"
"430","-0.02074200000000097","0.01890999999999963"
"431","-0.03969499999999471","0.05637999999999721"
"432","-0.011369999999999436","0.018124999999999503"
"433","0.0","0.0"
"434","0.0","0.0"
"435","-0.03517999999999155","0.03236499999999687"
"436","-4.999999999988347E-4","0.004660000000001219"
"437","0.0","0.0"
"438","-0.004326666666667478","0.005096666666666749"
"439","-0.008904545454547148","0.010282727272726853"
"440","-0.00872090909090934","0.01039045454545473"
"441","-0.007139999999997333","0.004176666666666051"
"442","-0.020114999999996996","0.006530000000003255"
"443","-0.010939999999997951","0.013589999999997104"
"444","0.0","0.0"
"445","0.0","0.0"
"446","0.0","0.0"
"447","0.0","0.0"
"448","-0.00956250000000125","0.005794999999999995"
"449","-0.008446470588235902","0.007767647058823085"
"450","-0.0037000000000048773","0.010186000000000205"
"451","0.0","0.0"
"452","-0.005431999999998993","0.008108000000002136"
"453","-0.013815555555555173","0.00917000000000101"
"454","-0.004383333333333184","0.00842333333333419"
"455","-0.005687499999996959","0.020054999999999712"
"456","-0.03675749999999667","0.020279999999998743"
"457","-0.09259999999999972","0.03588333333333319"
"458","-0.008528333333333174","0.008019166666667429"
"459","-0.011119090909089508","0.015742727272727176"
"460","-0.0172614285714293","0.024314285714286905"
"461","-0.011756875000002331","0.02505375000000032"
"462","-0.012135000000000673","0.008862500000000217"
"463","-0.005688333333332925","0.015498333333332504"
"464","-0.01745687499999793","0.011927500000000202"
"465","-0.025488571428573335","0.01711107142857049"
"466","-0.01087000000000111","0.015261428571428886"
"467","-0.022125000000000974","0.016493846153845783"
"468","-0.0287909090909082","0.03265999999999991"
"469","0.0","0.0"
"470","0.0","0.0"
"471","-0.02188999999999197","0.02729833333333372"
"472","-0.032450999999999876","0.023956499999999714"
"473","-0.051073571428571087","0.051285714285713775"
"474","-0.01925250000000034","0.005035000000001233"
"475","-0.016504166666668613","0.015549166666666872"
"476","-0.011338333333328935","0.004538333333333237"
"477","-0.020203999999997536","0.01494599999999906"
"478","-0.029439999999997468","0.055862499999999926"
"479","0.0","0.0"
"480","0.0","0.0"
"481","-0.0012699999999910005","0.024029999999999774"
"482","0.0","0.0"
"483","0.0","0.0"
"484","-0.018063333333328064","0.02290666666666752"
"485","-0.03488333333333079","0.030613333333332566"
"486","-0.016007499999998842","0.021966250000000187"
"487","-0.02081625000000109","0.012702499999998285"
"488","-0.009473076923077119","0.007430000000000748"
"489","-0.018319999999995673","0.002159999999996387"
"490","-0.007570000000008292","0.0050900000000027035"
"491","0.0","0.0"
"492","0.0","0.0"
"493","0.0","0.0"
"494","0.0","0.0"
"495","-0.009970000000002699","0.01726499999999831"
"496","-0.022249999999992554","3.799999999998249E-4"
"497","-0.0058471428571422734","0.011109999999999636"
"498","-0.005865999999996064","0.014648000000000393"
"499","-0.008595000000003239","0.0034600000000040154"
"500","-0.024210000000010723","0.014219999999998123"
"501","-0.0015099999999890201","0.011609999999999824"
"502","0.0","0.0"
"503","-0.024545714285715853","0.014444285714286511"
"504","-0.010311428571431034","0.01114714285714261"
"505","-0.02456111111111012","0.01978777777777828"
"506","-0.05063370370370411","0.02668481481481435"
"507","-0.016682285714287964","0.01896142857142818"
"508","-0.011624864864864543","0.010722432432432571"
"509","-0.017194545454548852","0.014723636363636413"
"510","-0.03351583333333134","0.0172816666666676"
"511","-0.03986478260869606","0.018933913043478034"
"512","-0.054835999999998816","0.02161700000000053"
"513","-0.049238333333337415","0.09833666666666652"
"514","-0.04711095238095013","0.03737190476190477"
"515","-0.060268750000002314","0.06689500000000015"
"516","-0.0697100000000006","0.035459999999998715"
"517","0.0","0.0"
"518","-0.04967799999999869","0.04757999999999711"
"519","-0.03228312500000091","0.029725000000000223"
"520","-0.028931250000001907","0.02065937499999948"
"521","-0.05451999999999968","0.16436499999999654"
"522","-0.0029799999999937654","0.005446666666665341"
"523","-0.01415166666667004","0.00648666666666801"
"524","-0.0017319999999983794","0.013449999999999563"
"525","-0.0582600000000042","0.04591000000000278"
"526","-0.026422499999998905","0.02531250000000007"
"527","0.0","0.0"
"528","0.0","0.0"
"529","-1.8000000000029104E-4","0.02177000000000362"
"530","0.0","0.0"
"531","-0.02368000000000059","0.046575000000002476"
"532","-0.029220000000002244","0.0182399999999987"
"533","-0.00280333333333734","0.009486666666668716"
"534","0.0","0.0"
"535","0.0","0.0"
"536","0.0","0.0"
"537","0.0","0.0"
"538","-0.006330000000005498","8.09999999997757E-4"
"539","-0.006930000000000547","0.007994999999999308"
"540","-0.009230000000002292","0.010627142857142502"
"541","-0.009710000000000699","0.011786666666665724"
"542","-0.007525000000001114","0.011120000000000019"
"543","-0.02070999999999401","0.0022999999999981924"
"544","-0.005784999999999485","0.005349999999999966"
"545","0.0","0.0"
"546","-5.300000000048044E-4","0.006549999999997169"
"547","-0.1129799999999932","0.05526000000000053"
"548","-0.11455000000001547","0.05266000000000304"
"549","-0.01262333333333269","0.03820999999999941"
"550","-0.021085714285709805","0.02062357142857074"
"551","-0.024733076923080962","0.014875384615385255"
"552","-0.03974999999999592","0.018054285714285863"
"553","-0.019476875000000504","0.017551874999999884"
"554","-0.006746666666667049","0.010023333333331644"
"555","-0.008833333333335839","0.012422083333332168"
"556","-0.008142500000001718","0.010855000000000281"
"557","-0.013949999999994134","0.013249999999995765"
"558","-0.017918095238100375","0.01770952380952466"
"559","-0.029357999999999152","0.02931133333333425"
"560","-0.035361818181821096","0.061236363636364644"
"561","-0.04084249999999775","0.05834166666666718"
"562","-0.050145384615384196","0.03553000000000112"
"563","-0.014368750000004482","0.01001625000000006"
"564","-0.012829999999993902","0.020150000000001"
"565","-0.0377700000000003","0.04504999999999981"
"566","-0.02016800000000618","6.080000000004305E-4"
"567","-0.042462222222222894","0.021704444444444623"
"568","-0.1061269230769232","0.06491076923076843"
"569","-0.004139999999992483","-0.02400000000000091"
"570","-0.027144000000004453","0.03401799999999895"
"571","-0.049159999999986326","-0.008680000000001797"
"572","-0.003980000000003277","-0.008643333333332967"
"573","-0.0120700000000132","-0.0028166666666654314"
"574","-0.011719999999996844","0.01602666666666508"
"575","-0.02117399999999634","0.008439999999999514"
"576","-0.013821111111111704","-1.4222222222157497E-4"
"577","-0.004044285714284358","0.002205714285714525"
"578","-0.006937333333333366","0.004913333333333488"
"579","-1.4179414285714294","-0.014677142857142833"
"580","-0.023340000000008132","-0.026165000000002436"
"581","-0.005510000000001014","-0.007179999999998188"
"582","-0.007655000000003298","-0.003190000000000026"
"583","-0.009269999999999001","5.949999999996791E-4"
"584","-0.017284166666667506","8.233333333335461E-4"
"585","-0.016502857142858676","0.008631428571428654"
"586","-0.009532499999998834","0.012684999999998503"
"587","-0.029816666666668823","-0.003076666666668615"
"588","-0.005924999999995961","-4.250000000105558E-5"
"589","-0.009441428571429964","5.142857142860383E-4"
"590","0.0","0.0"
"591","0.0","0.0"
"592","-0.008246666666665922","0.010065000000000287"
"593","-0.02519444444444474","0.017211111111111264"
"594","-0.010851999999998441","0.006579999999999586"
"595","-0.013923333333327292","-5.83333333323092E-5"
"596","-0.012172916666668124","-0.005475833333333864"
"597","-0.01513058823529434","0.00824352941176401"
"598","-0.008246666666664737","0.0030449999999995945"
"599","-0.011086666666661435","-0.008449999999999057"
"600","-0.012631142857144693","-0.004775428571428059"
"601","-0.2787580000000003","0.024607400000000154"
"602","-0.013677500000005338","0.012476249999998856"
"603","-0.033872222222224004","-0.00664333333333368"
"604","-0.027984999999997484","-0.02401500000000034"
"605","-0.07616333333332648","-0.1594933333333337"
"606","-0.0453388000000001","-0.015775600000000053"
"607","-0.05143523809523472","0.03606238095238063"
"608","-0.06156100000000251","-0.048544499999999324"
"609","-0.05047434782608639","-0.01873739130434747"
"610","-0.039907000000005154","-0.016858000000000574"
"611","0.0","0.0"
"612","-0.02990999999999966","-0.056000000000002714"
"613","-0.02432800000000519","-0.02392800000000008"
"614","-0.016336666666666073","-0.04829333333333589"
"615","-0.04996777777777734","-0.04124333333333357"
"616","0.0","0.0"
"617","-0.005696666666660022","-0.018283333333335133"
"618","-0.03344500000000039","-0.009629999999997807"
"619","0.0","0.0"
"620","-0.013304285714292112","-0.008474285714285656"
"621","0.0","0.0"
"622","0.0","0.0"
"623","-0.018459999999990373","-0.004360000000001918"
"624","0.0","0.0"
"625","0.0","0.0"
"626","-0.005592500000000555","-0.007857500000000961"
"627","-0.0022500000000012696","-0.01298666666666648"
"628","-0.008247777777774622","-0.011466666666665995"
"629","-0.02125000000000199","-0.0077280000000008895"
"630","-0.012248181818184182","-0.011310000000000093"
"631","-0.00571499999999503","-0.0044900000000023255"
"632","-0.036189999999997724","-0.03002999999999645"
"633","-0.010300000000000864","-0.004612499999999464"
"634","-0.015656666666664876","-0.02140666666666628"
"635","-0.02051700000000096","-0.019493999999999546"
"636","-0.011645000000000572","-0.015185000000000226"
"637","-0.017079999999999984","-0.0169009999999993"
"638","-0.00428666666666544","-0.01511333333333198"
"639","-0.03753250000000108","-0.05338749999999948"
"640","-0.001059999999995398","-0.006489999999999441"
"641","-0.022756666666670828","-0.019676666666666637"
"642","-0.016678260869563418","-0.011822173913042633"
"643","-0.016568928571426715","-0.01702857142857133"
"644","-0.00779750000000945","-0.028407500000001917"
"645","-0.026706785714286037","-0.018028571428571154"
"646","-0.010880000000000223","-0.006364999999998844"
"647","-0.018494000000001166","-0.01787066666666727"
"648","-0.00990066666666678","-0.014465999999999705"
"649","-0.013384285714285024","-0.007922857142857152"
"650","-0.06711120000000222","-0.44552880000000017"
"651","-0.039627499999996374","-0.03240750000000059"
"652","-0.049683333333335376","-0.03279333333333293"
"653","-0.054468000000002806","-0.06848149999999986"
"654","-0.03189500000000172","-0.03783428571428615"
"655","-0.029791176470589126","-0.0778923529411766"
"656","-0.009666666666667822","-0.01615666666666904"
"657","-0.02390111111111537","-0.028605555555554614"
"658","-0.005369999999999209","-0.015600000000006276"
"659","-0.015012500000000761","-0.04526499999999878"
"660","0.0","0.0"
"661","-0.007080000000000197","-0.05234999999999701"
"662","-0.01567666666666767","-0.022586666666667792"
"663","-0.005496666666668186","-0.008283333333332976"
"664","-0.014473076923073118","-0.009070000000000423"
"665","0.0","0.0"
"666","0.0","0.0"
"667","-0.004310000000003811","-0.002530000000003696"
"668","0.0","0.0"
"669","0.0","0.0"
"670","0.0","0.0"
"671","0.0","0.0"
"672","-0.004691666666668463","-0.02837333333333388"
"673","-0.007125555555555015","-0.009923333333333458"
"674","-0.011303333333331741","-0.019910000000001798"
"675","-0.004795000000001437","-0.021979999999999222"
"676","-0.00494200000000049","-0.03242700000000091"
"677","-0.013550000000002171","-0.0012799999999977274"
"678","-0.008150000000000546","-0.0045999999999999375"
"679","-0.0011400000000065802","-0.01162000000000063"
"680","-0.010073333333333304","-0.004688888888889803"
"681","0.0","0.0"
"682","0.0","0.0"
"683","0.0","0.0"
"684","0.0","0.0"
"685","-0.02252250000000089","-0.0059749999999993975"
"686","-0.008680000000000274","-0.009708571428571844"
"687","-0.03607333333332955","-0.05177000000000002"
"688","-0.008288000000000295","-0.023441999999999297"
"689","-0.0024399999999999977","-0.006554000000000571"
"690","-0.0062742857142917986","-0.004354285714286326"
"691","-0.009588888888889832","-0.0074888888888888045"
"692","-0.134975263157895","-0.1689457894736845"
"693","-0.014793181818182627","-0.017909090909089865"
"694","-0.01226249999999851","-0.007552499999999185"
"695","-0.00848444444443904","-0.010191111111110965"
"696","-0.019303600000000073","-0.03242440000000059"
"697","-0.025283749999999827","-0.031634999999999414"
"698","-0.02494272727273028","-0.01915272727272824"
"699","-0.03135055555555431","-0.016809999999999548"
"700","-0.02795346153846295","-0.02205461538461547"
"701","-0.03302562500000095","-0.035557812499999564"
"702","-0.01968999999999839","-0.09269909090909065"
"703","-0.034578333333333454","-0.019618333333332554"
"704","-0.017119411764704582","-0.01887352941176492"
"705","-0.0019500000000078899","-0.007550000000001944"
"706","-0.006365000000000398","-0.012229999999997077"
"707","0.0","0.0"
"708","0.0","0.0"
"709","-0.03109999999999502","-0.037613749999999335"
"710","-0.006929999999995218","-0.006141249999999321"
"711","-0.023876666666666917","-0.037181666666665926"
"712","-0.022109999999995484","-0.019126666666666143"
"713","-0.011733999999999866","-0.003557999999999595"
"714","-0.028208000000000767","-0.005727999999999156"
"715","-0.1905369999999996","-0.2436562499999999"
"716","0.0","0.0"
"717","0.0","0.0"
"718","-0.019969999999993604","-0.007749999999997925"
"719","-0.0018249999999895294","-0.0033299999999982788"
"720","0.0","0.0"
"721","-0.018596250000002534","-0.01201624999999984"
"722","-0.007933000000000589","-0.016282999999999603"
"723","-0.021415000000001072","-0.011010000000002407"
"724","-0.01203999999999894","-0.012042000000000285"
"725","-0.004166666666667614","-0.0061799999999993345"
"726","-0.00876444444444107","-0.006824444444444645"
"727","-0.00920200000000051","-0.004740000000001743"
"728","-0.0066350000000001685","-0.01151249999999937"
"729","-0.052694999999999936","-0.06468500000000255"
"730","-0.010112499999999969","-0.013074999999999726"
"731","-0.018820000000000902","-0.05261599999999902"
"732","-0.007314999999998406","-0.002874999999999517"
"733","-0.022716666666667606","-0.011909166666666712"
"734","-0.01041272727272839","-0.006126363636361987"
"735","-0.019789000000000813","-0.013298000000000698"
"736","-0.005252499999999216","-0.009154999999999802"
"737","-0.007485416666666171","-0.005783749999999828"
"738","-0.0047499999999999435","-0.005451000000000405"
"739","-0.015310000000001196","-0.017491599999999465"
"740","-0.014604242424241395","-0.020847878787878346"
"741","-0.017501578947367966","-0.012962105263158762"
"742","-0.01666809523809339","-0.025379999999999927"
"743","-0.02012277777777803","-0.02140555555555521"
"744","-0.016907199999998852","-0.01987040000000064"
"745","-0.0160924999999974","-0.01895562500000092"
"746","-0.017171627906975573","-0.014105116279069265"
"747","-0.027500526315790058","-0.029783684210526854"
"748","-0.008456567164180877","-0.01246432835820896"
"749","-0.010855666666666035","-0.0182441666666661"
"750","-0.004469189189186301","-0.003236756756756645"
"751","-0.015363333333333173","-0.027951666666666597"
"752","0.0","0.0"
"753","-0.014093333333328703","-0.018419999999998993"
"754","-0.027050000000002683","-0.04360000000000497"
"755","-0.010770000000011937","-0.011949999999998795"
"756","-0.22866907894736652","-0.19292657894736856"
"757","-0.0066033333333312075","-0.007091333333332746"
"758","0.0","0.0"
"759","-0.006815833333331985","-0.012817499999998224"
"760","-0.002936666666679836","-0.003356666666668673"
"761","-0.0037112500000000548","-0.006940000000000168"
"762","-0.010370000000001767","-0.010514999999998054"
"763","-0.0012099999999968247","-0.01185999999999865"
"764","-0.01165000000000127","-0.006984999999998465"
"765","-0.014195999999998321","-0.008689999999998577"
"766","0.0","0.0"
"767","-0.03997999999999635","-0.024120000000003472"
"768","-0.01638799999999776","-0.01085999999999956"
"769","-0.005993333333331445","-0.007040000000003488"
"770","-0.0093299999999914","-2.1999999999877673E-4"
"771","-0.008729090909090525","-0.008371818181818081"
"772","-0.010123333333334964","-0.01093000000000425"
"773","-0.00475666666666541","-0.010970000000000368"
"774","-0.0072812499999983515","-0.006738750000002014"
"775","-0.007484999999999076","-0.002167500000000544"
"776","-0.011030000000005202","-0.004805000000001058"
"777","-0.006188888888888282","-0.004242222222222678"
"778","-0.0069411111111108426","-0.01296888888888819"
"779","-0.009678571428569935","-0.01128142857143136"
"780","-0.006805555555556471","-0.009333333333330134"
"781","-0.013715000000001965","-0.019248000000001396"
"782","-0.025906923076923667","-0.015490000000000328"
"783","-0.02061166666666657","-0.03158444444444205"
"784","-0.013947499999997781","-0.02048000000000183"
"785","-0.010163124999999162","-0.019193124999999034"
"786","-0.8632886206896535","-0.1409144827586208"
"787","-0.018731666666668662","-0.02517749999999926"
"788","-0.021678387096774863","-0.022092903225805868"
"789","-0.0191363333333328","-0.01928266666666687"
"790","-0.0104337499999995","-0.012141250000001177"
"791","-0.015200555555555835","-0.01600111111111082"
"792","-0.012784520547946475","-0.012255205479451997"
"793","-0.16087168000000043","-0.14538167999999962"
"794","-0.100861379310345","-0.03337793103448465"
"795","-0.017437874999997584","-0.010613375000000147"
"796","-0.01140674698795212","-0.013293614457830876"
"797","-0.012459999999990146","-0.018954999999996502"
"798","0.0","0.0"
"799","0.0","0.0"
"800","0.0","0.0"
"801","-0.022109999999999453","-0.04920400000000171"
"802","0.0","0.0"
"803","-0.0034999999999989484","-0.012869999999992388"
"804","-0.007503999999998711","-0.008764000000000749"
"805","-0.005848333333337526","-0.013671666666666008"
"806","-0.01786499999999336","-0.03737999999999886"
"807","-0.02750333333333484","-0.037943333333332184"
"808","-0.04379000000000177","-0.05428624999999876"
"809","-0.035987499999998285","-0.0412349999999968"
"810","-3.0500000001154604E-4","-0.015010000000003743"
"811","0.0","0.0"
"812","0.0","0.0"
"813","-0.0022099999999909414","-0.00882000000000005"
"814","-0.00882000000000005","-5.700000000032901E-4"
"815","-0.007573333333330841","-0.006823333333331997"
"816","-0.007531818181816293","-0.0036890909090901273"
"817","-0.012149999999995961","-0.009493333333336315"
"818","-0.010239999999999583","-0.008533750000001561"
"819","-0.002643333333333923","-0.004833333333335095"
"820","-9.999999999621423E-5","-0.0033999999999991815"
"821","0.0","0.0"
"822","0.0","0.0"
"823","-0.004310000000001679","-0.006858000000000431"
"824","-0.012193333333335943","-0.016813333333336306"
"825","-0.0076814285714296","-0.008822857142857085"
"826","-0.007035000000000379","-0.01213857142857222"
"827","-0.007119285714285439","-0.011903571428572743"
"828","-0.0268537499999999","-0.02552124999999883"
"829","-0.008064285714287476","-0.02072857142857235"
"830","-0.0234319999999992","-0.0137920000000013"
"831","-0.014775714285713195","-0.010560714285715176"
"832","-0.007749230769225444","-0.01161846153846168"
"833","-0.008292857142859184","-0.009329428571428926"
"834","-0.007756249999999317","-0.014404583333332907"
"835","-0.9643643478260845","-0.11265521739130381"
"836","-0.016361428571428454","-0.017549428571430374"
"837","-0.014832926829266435","-0.01351390243902533"
"838","-0.014572857142856796","-0.019051428571429035"
"839","-0.015563548387094688","-0.015432903225806675"
"840","-0.012397413793102885","-0.013770172413792513"
"841","-0.010853650793650773","-0.014223809523810154"
"842","-0.015335454545451781","-0.02010272727272748"
"843","-0.013029999999993436","-0.00961333333333414"
"844","0.0","0.0"
"845","0.0","0.0"
"846","0.0","0.0"
"847","-0.019160000000006505","-0.01294499999999843"
"848","-0.013419999999991697","-0.0084500000000034"
"849","-0.03301999999997918","-0.04080999999999335"
"850","-0.045209999999999084","-0.0011599999999916122"
"851","-0.006969999999999921","-0.01639333333333563"
"852","-0.009454999999988445","-0.01208499999999546"
"853","-0.01036999999999999","-0.014736666666668915"
"854","-0.024174999999998725","-0.03538833333333594"
"855","-0.055390000000002715","-0.05432666666666345"
"856","-0.019622000000003935","-0.009274000000002048"
"857","-0.013845999999995228","-0.02528199999999714"
"858","0.0","0.0"
"859","0.0","0.0"
"860","-0.0065099999999986835","-0.0126199999999983"
"861","-0.008334999999999315","-0.00640500000000177"
"862","-0.0046377777777782585","-0.005094444444443822"
"863","-0.004699999999999704","-0.006673333333335307"
"864","-0.010093333333334916","-0.01032666666666652"
"865","-0.005539999999999878","-0.005225000000002922"
"866","-0.006530000000005032","-0.0027799999999942315"
"867","-0.006483333333333026","-0.004933333333338415"
"868","-0.0037050000000018457","-0.002752499999996161"
"869","-0.010060000000000477","-0.006853333333334414"
"870","-0.004590000000001737","-0.010830000000002827"
"871","-0.0025087499999996155","-0.006532499999999608"
"872","-0.004818461538459491","-0.005802307692308025"
"873","-0.010690869565216279","-0.01049869565217328"
"874","-0.013352307692309422","-0.014923076923076577"
"875","-0.009447272727272284","-0.011282727272726138"
"876","-0.005157999999997287","-0.008402000000002375"
"877","-0.01227749999999972","-0.009210000000003049"
"878","-0.017802222222224866","-0.009645555555553957"
"879","-0.0061899999999946494","-0.01259818181818288"
"880","-0.00918419354838585","-0.01043548387096852"
"881","-0.007233999999997801","-0.012199333333332164"
"882","-0.01679615384615337","-0.019420769230769144"
"883","-0.010305806451612401","-0.009040967741936452"
"884","-0.013327000000001732","-0.012018999999999735"
"885","-0.013330000000001027","-0.007741111111109767"
"886","-0.013576571428571275","-0.014789714285714694"
"887","-0.011624814814815395","-0.007636851851852021"
"888","-0.011586250000000575","-0.009471875000000685"
"889","-0.010386800000000277","-0.017229799999999643"
"890","-0.014187000000003992","-0.013217000000001634"
"891","0.0","0.0"
"892","0.0","0.0"
"893","0.0","0.0"
"894","-0.0037275000000001057","-0.016180000000000305"
"895","-0.03415999999999997","-0.026670000000002858"
"896","-0.012239999999998918","-0.0103549999999899"
"897","-0.0038600000000001224","-0.006713333333334977"
"898","-0.042670000000001096","-0.02684000000000708"
"899","-0.04443999999999804","-0.021729999999990923"
"900","-0.004949999999999122","-0.009335000000000093"
"901","-0.01482857142856783","-0.005349999999999966"
"902","-0.01059666666666459","-0.011410000000001475"
"903","-0.00996000000000663","-0.029006666666662777"
"904","-0.014837500000003168","-0.019887499999997615"
"905","-0.011205000000000354","-0.012030000000002872"
"906","-0.00760999999999612","-0.00518000000000048"
"907","-0.0072611764705885744","-0.006073529411764448"
"908","-0.004516249999998667","-0.005520000000001524"
"909","-0.006198636363636176","-0.003358181818181614"
"910","-0.001781999999995776","-0.004753999999999791"
"911","-0.005496666666665817","-0.0035983333333315195"
"912","-0.010159999999991953","-0.005819999999992831"
"913","0.0","0.0"
"914","-0.007560000000012224","-0.031340000000000146"
"915","-0.006944999999998203","-0.013452500000001422"
"916","-5.29999999997699E-4","-2.400000000015723E-4"
"917","0.0","0.0"
"918","-0.006299999999999528","-0.00540499999999966"
"919","-0.012240000000000842","-0.011109999999997436"
"920","-0.015534999999999854","-0.015589999999999549"
"921","-0.018569999999996867","-0.011729999999992913"
"922","-0.01163999999999632","-0.005960000000005294"
"923","-0.005799999999995364","-0.01194500000000076"
"924","-0.013162499999999374","-0.010573333333333323"
"925","-0.009064999999996427","-0.009973636363636663"
"926","-0.009198333333332679","-0.006628333333334642"
"927","-0.011988620689654466","-0.020535172413792876"
"928","-0.010345714285712404","-0.0065471428571426725"
"929","-0.015753846153843325","-0.019255384615382044"
"930","-0.012626842105260638","-0.016743157894737612"
"931","-0.008781199999998535","-0.009111599999999952"
"932","-0.006593499999996056","-0.009885000000000232"
"933","-0.006649999999997871","-0.00673526315789499"
"934","-0.008420999999999878","-0.00788299999999964"
"935","-0.0062576543209896624","-0.005979382716050084"
"936","-0.0055275000000008295","-0.0071726923076918655"
"937","-0.03404000000001872","-0.014980000000008431"
"938","-0.025816000000000373","-0.016352000000001966"
"939","0.0","0.0"
"940","0.0","0.0"
"941","-0.02040600000000268","-0.04566200000000009"
"942","-0.008156666666666368","-0.006880000000000071"
"943","-7.649999999999046E-4","-0.004129999999999967"
"944","-0.011855999999997202","-0.008527999999999735"
"945","-0.01667200000000193","-0.015993999999997753"
"946","-0.021430000000001392","-0.00987750000000176"
"947","-0.011827500000001656","-0.015503749999999705"
"948","-0.010748000000002377","-0.019476000000000226"
"949","-0.02152833333333219","-0.015980000000000178"
"950","-0.1658699999999989","-0.061716000000001256"
"951","-0.006281666666671626","-0.00619833333333375"
"952","-0.006968125000000658","-0.005896874999999024"
"953","-0.0031750000000023704","-0.005003000000001379"
"954","-0.006018181818180549","-0.010852727272727236"
"955","-0.006882666666666163","-0.00892799999999975"
"956","-0.021932500000003685","-0.011732500000002588"
"957","-0.0032399999999981333","-0.004909999999995307"
"958","-0.009829999999998526","-0.018693333333331452"
"959","-0.003969999999998411","-0.006042857142855748"
"960","-0.005990000000000606","-0.0034683333333340727"
"961","-0.00783999999999215","-0.008456666666667445"
"962","-0.00735666666666764","-0.0038549999999979434"
"963","-0.00672666666666899","-0.010198333333332718"
"964","-0.004975714285713195","-0.007698571428571809"
"965","-0.005852000000001567","-0.009238000000000569"
"966","-0.23084599999999966","-0.04531000000000063"
"967","-0.009761111111107508","-0.0055911111111110285"
"968","-0.006485714285713888","-0.008543571428572047"
"969","-0.010900769230770034","-0.006153846153846023"
"970","-0.00987750000000176","-0.006535833333332519"
"971","-0.007189583333332787","-0.011793333333333026"
"972","-0.003916904761905606","-0.007625238095238544"
"973","-0.007093518518517151","-0.010824629629629778"
"974","-0.009484000000000234","-0.010587272727271758"
"975","-0.00915181818181762","-0.015705909090909905"
"976","-0.010489736842104648","-0.018597105263158317"
"977","-0.015759705882352232","-0.010751470588235053"
"978","-0.006888571428573543","-0.012685238095238154"
"979","-0.013087999999999055","-0.019812000000000295"
"980","-0.011317333333335","-0.01362000000000118"
"981","-0.015073749999997332","-0.010618125000000589"
"982","-0.0068503999999995815","-0.00795079999999956"
"983","-0.01070789473684155","-0.008775789473684065"
"984","-0.017879999999999435","-0.014586296296297131"
"985","-0.012069999999994252","-0.00226999999998867"
"986","0.0","0.0"
"987","0.0","0.0"
"988","0.0","0.0"
"989","-0.024004999999998944","-0.010342500000000143"
"990","-0.0063875000000004345","-0.01648750000000021"
"991","-0.003988333333332743","-0.007734166666665487"
"992","-0.008733809523810046","-0.007494761904762895"
"993","-0.0036245454545445325","-0.0078027272727280465"
"994","-0.012034999999997353","-0.015644999999999243"
"995","-0.0058475000000000055","-0.007558749999999392"
"996","-0.006049000000000267","-0.010899333333333297"
"997","-0.007255882352941716","-0.009665294117647083"
"998","-0.007623095238094922","-0.0056845238095227"
"999","-0.013496111111112362","-0.0137316666666665"
"1000","-0.013401851851852","-0.009153703703704674"
"1001","-0.005659344262295509","-0.005689836065574557"
"1002","-0.009752000000000293","-0.01708600000000047"
"1003","-0.010490000000001961","-0.010733333333332004"
"1004","-0.012201666666668368","-0.0032733333333349415"
"1005","-0.006504285714284614","-0.004724285714285007"
"1006","-0.008503333333336293","-0.014796666666665854"
"1007","-0.011851666666666816","-0.007796666666666378"
"1008","-0.0064866666666697865","-0.008570000000001224"
"1009","-0.008771999999999025","-0.007425999999999533"
"1010","-0.007453999999998473","-0.010335999999999502"
"1011","-0.006095000000005513","-0.005919999999999703"
"1012","-0.008142857142859481","-0.013244285714284234"
"1013","-0.005532000000000892","-0.005445999999997753"
"1014","-0.007329999999999615","-0.00414999999999921"
"1015","-0.014389999999997372","-0.007144000000000972"
"1016","-0.019310000000000827","-0.011362500000000608"
"1017","-0.0015900000000002024","-0.006520000000001858"
"1018","-0.009626666666669337","-0.01421000000000324"
"1019","-0.0202433333333308","-0.022633333333331507"
"1020","-0.0070088888888840805","-0.011181111111111383"
"1021","-0.012071249999998201","-0.014492499999997577"
"1022","-0.011031500000001415","-0.018462000000000957"
"1023","-0.00876999999999636","-0.012662857142856865"
"1024","-0.01194333333333317","-0.017217777777775705"
"1025","-0.007591851851853659","-0.011827407407408607"
"1026","-0.008916500000000127","-0.008010999999999768"
"1027","-0.018048461538462297","-0.020516153846153556"
"1028","-0.015191538461533146","-0.01874230769230733"
"1029","-0.01666785714285522","-0.01922785714285575"
"1030","-0.009726666666664366","-0.010786666666665687"
"1031","-0.001310000000003697","-0.02985999999999933"
"1032","0.0","0.0"
"1033","0.0","0.0"
"1034","-0.01764499999999991","-0.01688124999999996"
"1035","-0.006339999999999198","-0.0049933333333337755"
"1036","-0.021646666666664222","-0.02278333333333175"
"1037","-0.008693684210526286","-0.012736842105263017"
"1038","-0.010056666666664308","-0.01173888888889015"
"1039","-0.004041000000000139","-0.009019999999998873"
"1040","-0.003455714285713388","-0.007211428571430645"
"1041","-0.010220476190476006","-0.011470000000001064"
"1042","-0.012772631578948116","-0.011391052631577213"
"1043","-0.012654090909090664","-0.01308499999999959"
"1044","-0.008327599999999364","-0.01092200000000048"
"1045","-0.006494999999997475","-0.00716899999999967"
"1046","-0.005716842105264942","-0.007910526315789548"
"1047","-0.006346399999999903","-0.006711999999999705"
"1048","-0.00895411764706111","-0.008129999999999213"
"1049","-0.0037600000000033162","-0.005315000000010173"
"1050","-0.005908333333328149","-0.007118333333328526"
"1051","-0.010890714285714864","-0.008997142857141276"
"1052","-0.0034974999999963785","-0.006092500000001166"
"1053","-0.010420000000003427","-9.000000000014552E-4"
"1054","-0.016870000000000506","-0.02731181818181806"
"1055","-0.006159999999998907","-0.01209666666667412"
"1056","-0.028799999999996828","-0.01214000000000226"
"1057","0.0","0.0"
"1058","-0.006665000000001697","-0.00484000000000151"
"1059","-0.006405000000000882","-0.009764999999994473"
"1060","-0.01727399999999335","-0.011305999999997596"
"1061","-0.01647399999999948","-0.010750000000000171"
"1062","-0.013916666666673905","-0.012223333333335992"
"1063","-0.00792499999999663","-0.006054999999996369"
"1064","-0.007302500000001544","-0.012447499999996836"
"1065","-0.008922000000002584","-0.010120000000000573"
"1066","-0.010234999999996811","-0.005074999999997942"
"1067","0.0","0.0"
"1068","-0.006203750000002728","-0.006751250000002429"
"1069","-0.017413750000002892","-0.019206250000003422"
"1070","-0.01464799999999684","-0.034559999999999036"
"1071","-0.015374285714289369","-0.022661428571428895"
"1072","-0.004129999999999967","-0.008710000000000662"
"1073","0.0","0.0"
"1074","0.0","0.0"
"1075","-0.023209999999991737","-0.06817500000000365"
"1076","-0.015978333333324695","-0.018875000000001307"
"1077","0.0","0.0"
"1078","0.0","0.0"
"1079","0.0","0.0"
"1080","0.0","0.0"
"1081","-0.02080199999999479","-0.024454000000002907"
"1082","-0.0037746153846143216","-0.012454615384615845"
"1083","-0.0074905128205141015","-0.012267435897435428"
"1084","-0.00851057692307661","-0.012952307692307895"
"1085","-0.011573809523809249","-0.009969761904761652"
"1086","-0.009897599999999791","-0.00905740000000165"
"1087","-0.011307291666667996","-0.009898333333333417"
"1088","-0.010750232558140168","-0.008016627906976267"
"1089","-0.011205074626865015","-0.009548059701492598"
"1090","-0.010620735294117863","-0.007418823529411987"
"1091","-0.010690434782607908","-0.008576086956522065"
"1092","-0.008453260869564092","-0.008717391304347127"
"1093","-0.0060165625000005996","-0.0072056250000007704"
"1094","-0.013999999999999742","-0.008969444444445744"
"1095","-0.005611999999999284","-0.012720000000000198"
"1096","-0.0011900000000011346","-0.007362857142853484"
"1097","-0.001840000000001396","-0.008110000000005613"
"1098","-0.007861999999998658","-0.01154200000000003"
"1099","-0.004764999999995467","-0.01564500000000635"
"1100","-0.005027500000000629","-0.014782499999999033"
"1101","-0.02428250000000176","-0.026772500000001642"
"1102","-0.011373999999997863","-0.006035999999997444"
"1103","-0.00610333333333557","-0.009126666666669317"
"1104","-0.0177200000000024","-0.014582500000003051"
"1105","-0.01922500000000049","-0.01508250000000011"
"1106","0.0","0.0"
"1107","-0.00544999999999618","-0.034420000000004336"
"1108","-0.005864999999996456","-0.004874999999994856"
"1109","-0.0027999999999934744","-0.02891999999999939"
"1110","-0.011039999999994166","-0.012010000000003629"
"1111","0.0","0.0"
"1112","0.0","0.0"
"1113","0.0","0.0"
"1114","0.0","0.0"
"1115","0.0","0.0"
"1116","-0.008166666666667766","-0.0067000000000045174"
"1117","0.0","0.0"
"1118","0.0","0.0"
"1119","-8.300000000076579E-4","-0.006980000000005759"
"1120","-0.010588000000004172","-0.010923999999999979"
"1121","-0.015313333333333881","-0.02032333333333251"
"1122","-0.01325999999999894","-0.009727500000000333"
"1123","0.0","0.0"
"1124","0.0","0.0"
"1125","0.0","0.0"
"1126","0.0","0.0"
"1127","0.0","0.0"
"1128","0.0","0.0"
"1129","-0.009431025641025275","-0.013099743589744587"
"1130","-0.006306388888889902","-0.007329999999999615"
"1131","-0.004953076923075928","-0.004642307692307736"
"1132","-0.006528805970149864","-0.006847462686568185"
"1133","-0.00974058823529385","-0.01734970588235306"
"1134","-0.014229199999998414","-0.009575600000001714"
"1135","-0.00866941176470829","-0.0094529411764705"
"1136","-0.008554848484849206","-0.004560909090908355"
"1137","-0.052655555555556","-0.008475555555558381"
"1138","-0.00855500000000653","-0.005224999999995816"
"1139","-0.0035633333333314633","-0.002581111111111688"
"1140","0.0","0.0"
"1141","-0.006910000000004857","-0.009300000000003195"
"1142","-0.02646000000000015","-0.004870000000003927"
"1143","-7.999999999697138E-5","-0.006300000000003081"
"1144","0.0","0.0"
"1145","0.0","0.0"
"1146","-9.799999999913211E-4","-0.002029999999997756"
"1147","-0.0019899999999921647","-2.300000000090563E-4"
"1148","0.0","0.0"
"1149","0.0","0.0"
"1150","-0.0010399999999961551","-0.0017700000000004934"
"1151","-0.01730999999999483","-0.0112399999999937"
"1152","-0.01362666666666712","-0.003113333333331525"
"1153","0.0","0.0"
"1154","-0.010600000000003718","-0.0016299999999951353"
"1155","-0.013049999999999784","-0.0047100000000028786"
"1156","-0.018990000000002283","-0.024689999999999657"
"1157","-0.013573333333333437","-0.006569999999998781"
"1158","0.0","0.0"
"1159","-0.02501000000002307","-0.010829999999991458"
"1160","-0.009469999999993206","-0.0028800000000046566"
"1161","-0.011853999999996746","-0.0037980000000004564"
"1162","-0.012999999999991019","-0.0035400000000045395"
"1163","-0.009015000000012208","-0.007480000000001041"
"1164","-0.008421250000004932","-0.012930000000000774"
"1165","-0.010119333333331799","-0.0073466666666680185"
"1166","-0.018826666666664476","-0.01396133333333296"
"1167","0.0","0.0"
"1168","0.0","0.0"
"1169","0.0","0.0"
"1170","0.0","0.0"
"1171","0.0","0.0"
"1172","0.0","0.0"
"1173","0.0","0.0"
"1174","0.0","0.0"
