"cell_id","acc_x","acc_y"
"0","0.0","0.0"
"1","0.0","0.0"
"2","0.0","0.0"
"3","0.0","0.0"
"4","0.0","0.0"
"5","0.0","0.0"
"6","0.0","0.0"
"7","0.0","0.0"
"8","0.0","0.0"
"9","0.0","0.0"
"10","0.005525000000000446","0.0015650000000002606"
"11","0.006995625000000727","0.0038162500000000626"
"12","0.013368000000001245","0.009631999999999996"
"13","0.009720000000001505","0.008440000000000003"
"14","0.0","0.0"
"15","0.0","0.0"
"16","0.0","0.0"
"17","0.0","0.0"
"18","0.0","0.0"
"19","0.0","0.0"
"20","0.0","0.0"
"21","0.0","0.0"
"22","0.0","0.0"
"23","0.0","0.0"
"24","0.0","0.0"
"25","0.0","0.0"
"26","0.0","0.0"
"27","0.0","0.0"
"28","0.0","0.0"
"29","0.0","0.0"
"30","0.0","0.0"
"31","0.0","0.0"
"32","0.0","0.0"
"33","0.0","0.0"
"34","0.0","0.0"
"35","0.0","0.0"
"36","0.0","0.0"
"37","0.0","0.0"
"38","0.0","0.0"
"39","0.0","0.0"
"40","0.0","0.0"
"41","0.0","0.0"
"42","0.0","0.0"
"43","0.0","0.0"
"44","0.01055125000000127","0.030879583333333332"
"45","0.0","0.0"
"46","0.0","0.0"
"47","0.0","0.0"
"48","0.0","0.0"
"49","0.0","0.0"
"50","0.0","0.0"
"51","0.0","0.0"
"52","0.0","0.0"
"53","0.0","0.0"
"54","0.0","0.0"
"55","0.0","0.0"
"56","0.0","0.0"
"57","0.0","0.0"
"58","0.0","0.0"
"59","0.0","0.0"
"60","0.008807499999999635","0.007772500000000071"
"61","0.007783333333338287","0.010180000000000078"
"62","0.0","0.0"
"63","0.0","0.0"
"64","0.0","0.0"
"65","0.011753333333333652","0.007696666666666463"
"66","0.0040099999999985885","0.012803333333333425"
"67","0.0","0.0"
"68","0.007929999999994664","0.03759999999999941"
"69","0.005824999999997971","0.011439999999999895"
"70","0.008434999999998638","0.01697499999999974"
"71","0.009519999999994866","0.007340000000000124"
"72","1.2000000000966793E-4","0.010559999999999903"
"73","0.0013049999999950046","0.004935000000000134"
"74","0.0","0.0"
"75","0.0","0.0"
"76","0.0018000000000100158","0.01112999999999964"
"77","0.01232999999999862","0.0013700000000000934"
"78","0.00274999999999892","0.009869999999999823"
"79","0.0","0.0"
"80","0.0070600000000050995","0.01200000000000001"
"81","0.0","0.0"
"82","0.00796461538461393","0.003982307692307683"
"83","0.007238461538461339","0.009606923076922987"
"84","0.01830666666666679","0.016690000000000094"
"85","0.00808125000000004","0.004595000000000016"
"86","0.0052966666666615465","0.007356666666666702"
"87","0.017105000000000814","0.015364999999999851"
"88","0.0039675000000087834","0.008512499999999923"
"89","0.011803333333332944","0.02342666666666678"
"90","0.010102000000003386","0.03144400000000012"
"91","0.010078125000001492","0.021810937500000002"
"92","0.007844999999999658","0.012055000000000066"
"93","0.0","0.0"
"94","0.0","0.0"
"95","0.0","0.0"
"96","0.0","0.0"
"97","0.0","0.0"
"98","0.0","0.0"
"99","0.014560000000003015","0.014789999999999637"
"100","0.007349999999995305","0.015844999999999665"
"101","0.0016600000000153159","0.023570000000000313"
"102","0.012034999999997353","0.006420000000000314"
"103","0.0","0.0"
"104","0.007410000000000139","0.014509999999999579"
"105","0.0071849999999926695","0.009345000000000603"
"106","0.0","0.0"
"107","0.0","0.0"
"108","0.0","0.0"
"109","0.1041950000000007","0.08489749999999996"
"110","0.010413333333334643","0.014089999999999492"
"111","0.012350000000004968","0.002220000000000333"
"112","0.0","0.0"
"113","0.0","0.0"
"114","0.005199999999994986","0.009089999999999598"
"115","0.008865000000000123","0.011569999999999858"
"116","0.010239999999988925","0.030560000000000365"
"117","9.499999999960096E-4","0.0351000000000008"
"118","0.0","0.0"
"119","0.0","0.0"
"120","0.0018749999999982947","0.014450000000000518"
"121","0.00924666666667188","0.019120000000000026"
"122","0.0","0.0"
"123","0.006513333333335443","0.004943333333333004"
"124","0.0","0.0"
"125","0.009483333333335509","0.012056666666667049"
"126","0.0","0.0"
"127","0.0","0.0"
"128","0.0","0.0"
"129","0.0117745454545454","0.007834545454545346"
"130","0.014428888888889761","0.0108211111111109"
"131","0.019765714285713085","0.011494285714285775"
"132","0.013781999999994809","0.014543999999999802"
"133","0.010157500000001818","0.021582500000000282"
"134","0.008413333333336936","0.01427000000000008"
"135","0.020036666666660114","0.023320000000000007"
"136","0.0037599999999997635","0.018230000000000857"
"137","0.0","0.0"
"138","0.03285000000001048","0.015030000000000321"
"139","0.0","0.0"
"140","0.007216666666674125","0.009799999999999956"
"141","0.0","0.0"
"142","0.0","0.0"
"143","0.0","0.0"
"144","0.017329999999991703","0.0016466666666667962"
"145","0.013460000000009131","0.011930000000000144"
"146","0.006794999999996776","0.00495000000000001"
"147","0.0","0.0"
"148","0.0","0.0"
"149","0.0","0.0"
"150","0.0","0.0"
"151","0.0","0.0"
"152","0.009650000000000603","0.010869999999999713"
"153","0.010193333333332314","0.008686666666666731"
"154","0.005939999999998946","0.0016899999999990811"
"155","0.0","0.0"
"156","0.004709999999998142","0.019516666666666477"
"157","0.003470000000000084","0.014675000000000216"
"158","0.004723333333332154","0.015979999999999883"
"159","0.006677999999998008","0.011382000000000225"
"160","0.009933333333333868","0.014370000000000438"
"161","0.00636249999999805","0.010732499999999812"
"162","0.0052400000000005775","0.019410000000000593"
"163","0.0037049999999965166","0.02104499999999998"
"164","0.005045000000000854","0.012357500000000243"
"165","0.0035850000000010596","0.00959000000000021"
"166","0.005145000000002398","0.014090000000000158"
"167","0.0032899999999962404","0.016545000000000254"
"168","0.0","0.0"
"169","0.0","0.0"
"170","0.0","0.0"
"171","0.0","0.0"
"172","0.0","0.0"
"173","0.001300000000000523","0.010320000000000107"
"174","0.002300000000005298","0.0033399999999996766"
"175","0.00963615384615388","0.010606153846153847"
"176","0.009902666666667415","0.011741999999999978"
"177","0.0195449999999866","0.01573499999999939"
"178","0.0","0.0"
"179","0.008739999999988868","0.016049999999999898"
"180","0.01671750000000216","0.008877499999999872"
"181","0.014690000000015857","0.0018999999999991246"
"182","0.02866750000000451","0.01624749999999997"
"183","0.0","0.0"
"184","0.0","0.0"
"185","0.0","0.0"
"186","0.0","0.0"
"187","0.008100000000020202","0.022149999999999448"
"188","0.0","0.0"
"189","0.0","0.0"
"190","0.003925000000002399","0.006729999999998348"
"191","0.001409999999992806","0.02173000000000158"
"192","0.0","0.0"
"193","0.010322500000000012","0.022014999999999674"
"194","0.0","0.0"
"195","0.0","0.0"
"196","0.0","0.0"
"197","0.0","0.0"
"198","0.0142639999999993","0.011771999999999849"
"199","0.0017100000000027649","0.01621999999999879"
"200","0.007679999999998799","0.0035449999999999093"
"201","0.005440000000003664","0.002789999999999182"
"202","0.0095799999999997","0.009764999999999802"
"203","0.005570000000002295","0.015515000000000612"
"204","0.008500000000001506","0.013039999999998386"
"205","0.0","0.0"
"206","0.0094033333333338","0.014489999999999744"
"207","0.010273333333332838","0.009396666666666794"
"208","0.008899999999997021","0.00782999999999845"
"209","0.008557500000000218","0.009047499999999875"
"210","0.0078400000000034","0.019415000000000848"
"211","0.0","0.0"
"212","0.007669999999993848","0.018324999999999925"
"213","0.0","0.0"
"214","0.022214999999995655","0.010195000000000842"
"215","0.0","0.0"
"216","0.0038299999999935608","0.006470000000000198"
"217","0.0","0.0"
"218","0.0","0.0"
"219","0.09624333333333368","0.11714666666666614"
"220","0.05256624999999815","0.06293250000000028"
"221","0.015836666666669115","0.021333333333333156"
"222","0.0","0.0"
"223","0.010015714285710178","0.0095799999999997"
"224","1.0999999999228294E-4","0.006249999999999645"
"225","0.0","0.0"
"226","0.0020299999999906504","8.000000000016882E-4"
"227","0.0","0.0"
"228","0.008319999999997663","0.03309999999999924"
"229","0.0","0.0"
"230","0.0","0.0"
"231","0.0","0.0"
"232","0.0","0.0"
"233","0.0","0.0"
"234","0.014530000000021914","0.002840000000002618"
"235","0.0","0.0"
"236","0.00664000000000442","0.022825000000000983"
"237","0.0","0.0"
"238","0.0","0.0"
"239","0.016716666666666196","0.01263999999999991"
"240","0.008624999999999883","0.012682499999998598"
"241","0.009080000000000865","0.01970000000000205"
"242","0.012834999999999042","0.004035000000000011"
"243","0.009125000000001826","0.00586999999999982"
"244","0.01676000000000144","0.016930000000000334"
"245","0.006050000000001887","0.0018300000000017747"
"246","0.0","0.0"
"247","0.012100000000000222","8.900000000018338E-4"
"248","0.013460000000002026","0.0030799999999988614"
"249","0.010149999999999437","0.009040000000000603"
"250","0.0","0.0"
"251","0.005319999999997549","0.009850000000001913"
"252","0.009229999999995186","0.02926500000000143"
"253","0.0","0.0"
"254","0.0","0.0"
"255","0.009500000000009834","0.013230000000000075"
"256","0.006519999999994752","0.01589999999999847"
"257","0.0","0.0"
"258","0.0","0.0"
"259","0.0","0.0"
"260","8.700000000061436E-4","0.0013999999999985135"
"261","0.009035000000000792","0.013329999999999842"
"262","0.0","0.0"
"263","0.0","0.0"
"264","0.02158500000000174","0.019737499999999297"
"265","0.01641499999999496","0.02131499999999864"
"266","0.007778333333334331","0.003671666666666814"
"267","0.004414999999994507","0.009094999999999409"
"268","0.01867800000000557","0.013208000000000197"
"269","0.007485454545454734","0.0129418181818177"
"270","0.013702000000004943","0.02431099999999997"
"271","0.029057499999984415","0.025252500000000122"
"272","0.013679999999993697","0.02137250000000046"
"273","0.006083333333336327","0.015113333333333756"
"274","0.006065000000000964","0.008745000000000225"
"275","0.007947142857139917","0.009747142857142574"
"276","0.028246666666665494","0.022268333333333484"
"277","0.01231999999999367","0.009922499999999612"
"278","0.0","0.0"
"279","0.0","0.0"
"280","0.0","0.0"
"281","0.17831999999998516","1.0888799999999996"
"282","0.0","0.0"
"283","0.00873666666666395","0.0016733333333339335"
"284","0.0","0.0"
"285","0.005850000000000577","0.01457000000000086"
"286","0.0","0.0"
"287","0.01693000000000211","0.00511000000000017"
"288","0.010549999999999097","0.00954000000000003"
"289","0.004830000000001888","0.01051999999999964"
"290","0.0","0.0"
"291","0.0","0.0"
"292","0.01425000000000054","0.009980000000000544"
"293","0.015584999999999738","0.007349999999999746"
"294","0.0","0.0"
"295","0.0","0.0"
"296","0.0","0.0"
"297","0.0051349999999992235","0.016960000000000974"
"298","0.0026700000000019486","0.005289999999998685"
"299","0.0","0.0"
"300","0.006945000000005308","0.00941499999999973"
"301","0.007389999999997343","0.006233333333333609"
"302","0.0070224999999997095","0.007334999999999869"
"303","0.0","0.0"
"304","0.005479999999998597","0.008126666666665727"
"305","0.005676666666668477","0.012400000000000114"
"306","0.0","0.0"
"307","0.0","0.0"
"308","0.0","0.0"
"309","0.0","0.0"
"310","0.001427500000000137","0.007264999999999411"
"311","0.005250000000000199","0.004685000000000272"
"312","0.010549999999998505","0.00679499999999944"
"313","0.002125000000006594","0.015885000000000815"
"314","0.005269999999995889","0.019910000000001205"
"315","0.012043333333328595","0.019746666666668727"
"316","0.0188080000000042","0.029749999999999943"
"317","0.014588571428575392","0.03332714285714289"
"318","0.006380000000007158","0.003970000000000695"
"319","0.04138857142856774","0.06449571428571435"
"320","0.01252444444444873","0.035582222222222036"
"321","0.011661666666666312","0.013665000000000186"
"322","0.0","0.0"
"323","0.12344333333333186","0.09990666666666748"
"324","9.599999999920783E-4","1.499999999996504E-4"
"325","0.0","0.0"
"326","0.0","0.0"
"327","0.0","0.0"
"328","0.0","0.0"
"329","0.0","0.0"
"330","0.0","0.0"
"331","0.03671999999999572","0.003290000000000385"
"332","0.013633636363636419","0.012333636363635976"
"333","0.017620000000000413","0.0013849999999999696"
"334","0.0","0.0"
"335","0.01524000000000214","0.011669999999998737"
"336","0.015349999999997976","0.052519999999999456"
"337","0.03980000000000139","0.009399999999999409"
"338","0.0","0.0"
"339","0.0","0.0"
"340","0.0","0.0"
"341","0.0","0.0"
"342","0.004407500000001008","0.006297499999999623"
"343","0.003154999999999575","0.003915000000000113"
"344","0.0","0.0"
"345","0.0037199999999941724","0.017599999999999838"
"346","0.006020000000001501","0.008125714285713721"
"347","0.004883333333333202","0.004304999999999559"
"348","0.0032300000000020646","6.800000000009021E-4"
"349","5.799999999993588E-4","9.300000000020958E-4"
"350","0.004230000000006839","1.8999999999991246E-4"
"351","0.0018940000000000623","0.005917999999999779"
"352","0.0034599999999951336","0.006212499999998844"
"353","0.004555000000001641","0.004126249999999443"
"354","0.0010249999999949466","0.007485000000000852"
"355","0.0","0.0"
"356","0.0","0.0"
"357","0.004970000000003694","0.007014999999998217"
"358","0.0139099999999992","0.019474999999999465"
"359","0.01063999999999865","0.006560000000000343"
"360","0.030205000000002258","0.06744500000000109"
"361","0.012798571428575656","0.010984285714285289"
"362","0.014330000000001064","0.008584999999999177"
"363","0.009522499999999212","0.013885000000000147"
"364","0.02870250000000496","0.053220000000000045"
"365","0.0","0.0"
"366","0.003729090909091197","0.007665454545454703"
"367","0.006266666666663904","0.00800666666666642"
"368","0.00859000000000094","0.004432000000000613"
"369","0.0","0.0"
"370","0.0","0.0"
"371","0.009692000000002565","0.012672000000000062"
"372","0.01882833333333404","0.013595000000000468"
"373","0.005670000000009168","0.006230000000002178"
"374","0.024879999999996016","0.05228000000000321"
"375","0.02506999999999948","0.018589999999999662"
"376","0.0","0.0"
"377","0.0","0.0"
"378","0.009615000000000077","0.008180833333333895"
"379","0.00882310344827555","0.009129310344828178"
"380","0.019365172413794107","0.010360344827586625"
"381","0.45264499999999935","0.05810947916666683"
"382","0.004998387096772343","0.006445806451612871"
"383","0.0114874999999941","0.0016550000000012943"
"384","0.0","0.0"
"385","0.012500000000002842","0.012250000000001648"
"386","8.299999999969998E-4","0.009299999999999642"
"387","0.01094999999999402","0.018760000000003885"
"388","0.0076666666666630095","0.011779999999998125"
"389","0.01249999999999929","0.005849999999995248"
"390","0.0","0.0"
"391","0.0019100000000022987","7.299999999972329E-4"
"392","0.001792499999996977","0.010592500000001337"
"393","0.008910000000007301","0.0018700000000002603"
"394","0.0","0.0"
"395","0.0","0.0"
"396","0.0","0.0"
"397","0.0","0.0"
"398","0.0","0.0"
"399","0.0","0.0"
"400","0.0","0.0"
"401","0.006819999999997606","0.008326666666666446"
"402","0.5640049999999999","0.21926250000000014"
"403","0.0011650000000003047","0.002120000000001454"
"404","0.012499999999993369","0.007126666666669242"
"405","0.004150000000000986","0.005975000000000286"
"406","0.007434545454545633","0.006518181818181807"
"407","0.00597250000000038","0.0028650000000007836"
"408","0.009851666666664963","0.01418999999999985"
"409","0.01869000000001127","0.011906666666667102"
"410","0.005260000000006926","0.010585000000000733"
"411","0.017830000000003565","0.01688000000000045"
"412","0.010348571428571469","0.014594285714284894"
"413","0.010771428571422754","0.013581428571428791"
"414","0.006669999999999732","0.0057266666666671755"
"415","0.03999000000000308","0.040069999999998274"
"416","0.0","0.0"
"417","0.011762222222219836","0.014022222222221516"
"418","9.000000000014552E-5","0.03860000000000241"
"419","0.009120000000010009","0.006209999999999383"
"420","0.012853333333328325","0.011169999999999113"
"421","0.004729999999995016","0.006879999999998887"
"422","0.0","0.0"
"423","0.024176923076922804","0.015970384615385066"
"424","0.032644000000000874","0.016022666666667126"
"425","0.026065238095238114","0.012819523809523522"
"426","0.014171000000000067","0.006108999999999654"
"427","0.011925483870967694","0.010825483870967852"
"428","0.014505833333334403","0.018039166666667494"
"429","0.020737199999999945","0.017716399999999622"
"430","0.016692105263157793","0.007391578947368322"
"431","0.011477894736843814","0.015896842105263993"
"432","0.01868857142857142","0.026111428571429736"
"433","0.007428571428570864","0.01182142857142868"
"434","0.006967500000000015","0.018288749999999965"
"435","0.0","0.0"
"436","0.0","0.0"
"437","0.0","0.0"
"438","0.009054999999996483","0.01159999999999961"
"439","0.00963000000000136","0.011070000000000135"
"440","0.0","0.0"
"441","0.0","0.0"
"442","0.0","0.0"
"443","0.0","0.0"
"444","0.0","0.0"
"445","0.0","0.0"
"446","0.0","0.0"
"447","0.006535000000006619","0.005644999999999456"
"448","0.00667749999999856","0.00791500000000056"
"449","0.013073333333333418","0.015766666666667817"
"450","0.0","0.0"
"451","0.013763333333334534","0.008463333333332676"
"452","0.0071400000000014785","0.004325000000000578"
"453","0.006719999999997839","0.007890000000003283"
"454","0.006270000000000664","8.300000000041052E-4"
"455","0.01838666666667166","0.003843333333331126"
"456","0.032039999999987856","0.020835000000001713"
"457","0.028329999999999227","0.01559499999999936"
"458","0.01552499999999668","0.016557500000001113"
"459","0.005389999999998452","0.015268333333333809"
"460","0.6786607142857116","0.26736035714285694"
"461","0.010090000000002894","0.016168333333332896"
"462","0.033955714285710314","0.05036428571428583"
"463","0.006386666666666467","0.01263999999999991"
"464","0.012187499999997797","0.015866249999998416"
"465","0.01492999999999256","0.01975499999999819"
"466","0.0","0.0"
"467","0.006255000000010114","0.01364500000000124"
"468","0.0","0.0"
"469","0.0","0.0"
"470","0.024493636363637897","0.01025272727272702"
"471","0.07509999999999994","0.015219999999999345"
"472","0.0330857142857142","0.05092238095238075"
"473","0.018421333333333016","0.014595666666666555"
"474","0.01074195652173842","0.011773478260869405"
"475","0.018264545454545974","0.017300909090908465"
"476","0.006320769230769749","0.0047553846153838624"
"477","0.013098095238094302","0.01532047619047647"
"478","0.008954117647057766","0.014912941176470481"
"479","0.008029999999999404","0.016814000000000818"
"480","0.005525000000000446","1.5000000000142677E-4"
"481","0.05776000000000181","0.003949999999999676"
"482","0.0","0.0"
"483","0.0","0.0"
"484","0.0021799999999932615","0.01044333333333114"
"485","0.009730000000001127","0.009129999999998972"
"486","0.0","0.0"
"487","0.025610000000000355","0.006810000000001537"
"488","0.00198999999999927","7.899999999985141E-4"
"489","0.0306500000000014","0.016429999999999723"
"490","0.008999999999993236","5.699999999961847E-4"
"491","6.100000000017758E-4","0.002320000000000988"
"492","0.0","0.0"
"493","0.002555000000004526","0.004949999999995569"
"494","0.0","0.0"
"495","0.011629999999996699","0.007053333333333948"
"496","0.0","0.0"
"497","0.003149999999994435","0.01264999999999894"
"498","0.004580000000004247","0.00280000000000058"
"499","0.019710000000003447","0.006489999999999441"
"500","0.028930000000002565","0.011009999999998854"
"501","0.006759999999992772","0.01228249999999953"
"502","0.004790000000014061","0.0061100000000031685"
"503","0.008486000000004879","0.01100800000000035"
"504","0.018268421052633693","0.023748947368420436"
"505","0.015824444444444592","0.02142888888888845"
"506","0.028728333333338203","0.023218333333333636"
"507","0.013344999999991577","0.025343333333333124"
"508","0.01466666666666446","0.01402250000000027"
"509","0.006096666666673893","0.008466666666667066"
"510","0.015920000000003043","0.016835000000000377"
"511","0.009978750000007253","0.015353750000000499"
"512","0.006671999999998472","0.01673466666666646"
"513","0.0454014285714298","0.027658571428571373"
"514","0.015281428571428128","0.013928571428570688"
"515","0.006011428571429381","0.008527142857142829"
"516","0.0","0.0"
"517","0.011354444444443593","0.008974444444444766"
"518","0.025987500000000024","0.015418750000000259"
"519","0.025843333333330887","0.019334166666667763"
"520","0.012621034482758198","0.01936827586206881"
"521","0.012215454545453464","0.011942272727273752"
"522","0.008075714285713837","0.007214999999999654"
"523","0.01306714285714288","0.017342142857143066"
"524","0.021121333333330838","0.020673999999999637"
"525","0.012587692307692787","0.006458461538461353"
"526","0.003926666666669003","0.006881666666666675"
"527","0.00677166666666551","0.01686499999999865"
"528","0.0","0.0"
"529","0.0","0.0"
"530","0.022541666666664757","0.014055000000000225"
"531","0.029707499999998","0.006927499999999753"
"532","0.0074200000000015365","0.012074999999999392"
"533","0.001954999999998819","0.006055000000001698"
"534","0.0","0.0"
"535","0.0035433333333306414","0.0016533333333335065"
"536","0.0067900000000094","3.200000000020964E-4"
"537","0.010774999999998869","0.0059700000000031395"
"538","0.008264999999994416","0.008504999999997764"
"539","0.005382499999999624","0.01024500000000117"
"540","0.0","0.0"
"541","0.0","0.0"
"542","0.0","0.0"
"543","0.0","0.0"
"544","0.0","0.0"
"545","0.0","0.0"
"546","0.0","0.0"
"547","0.07991000000000288","0.08394999999999797"
"548","0.004543333333335416","0.008266666666666348"
"549","0.006461249999998309","0.007596249999999749"
"550","0.013333333333333839","0.010138333333333607"
"551","0.010729000000004874","0.0405890000000003"
"552","0.030535714285716966","0.06086999999999979"
"553","0.013581818181814304","0.019604545454545142"
"554","0.019338749999999294","0.032422500000000465"
"555","0.006434000000004403","0.005575999999999937"
"556","0.015840999999994665","0.01379200000000047"
"557","0.016060000000010177","0.021050000000000086"
"558","0.026464000000004262","0.031118000000000735"
"559","0.010797272727271883","0.019365454545454887"
"560","0.019258333333331972","0.044235833333332586"
"561","0.017817999999996913","0.016383999999999333"
"562","0.016461249999998984","0.026227499999999182"
"563","0.0","0.0"
"564","0.02781000000000004","0.007220000000000226"
"565","0.024251999999999985","1.6999999999995908E-4"
"566","0.011088333333338992","-9.166666666657145E-4"
"567","0.018090000000000113","-0.013911111111111355"
"568","0.02190454545454592","0.004714545454544931"
"569","0.01650480000000016","0.00207480000000011"
"570","0.012040350877192284","-0.002027894736841873"
"571","0.019608421052632607","-0.010072105263158037"
"572","0.01357142857142879","-0.006651428571428498"
"573","0.03625421052631613","-0.008730526315788049"
"574","0.010792499999998206","-0.005876250000000027"
"575","0.017156875000001737","-0.009618124999999589"
"576","0.016682500000001266","-0.0011512500000008252"
"577","0.013668749999996344","-0.004802499999999377"
"578","0.009916666666665463","0.0018466666666678104"
"579","0.0","0.0"
"580","0.008636666666667736","-0.00687666666666568"
"581","0.013930000000001996","0.006486666666667418"
"582","0.012226666666669198","2.0166666666672958E-4"
"583","0.013024000000001479","-0.006210000000000803"
"584","0.012052857142857119","0.017345714285712837"
"585","0.014366250000000136","-0.004078749999999687"
"586","0.011677499999999341","0.0011274999999990598"
"587","0.0021149999999927616","0.009749999999998593"
"588","0.010961666666666758","0.03544166666666548"
"589","0.015786666666668243","0.004260000000000967"
"590","0.0","0.0"
"591","0.006721666666668587","-0.002305000000001556"
"592","0.017429999999997392","0.007660000000001332"
"593","0.014105000000004253","1.5000000000142677E-4"
"594","0.021863333333334997","0.01911777777777759"
"595","1.0655675000000007","0.07865027777777812"
"596","0.015410000000004143","-0.0038106249999998454"
"597","0.01811875000000107","0.012884999999999813"
"598","0.010758333333335202","5.274999999992739E-4"
"599","0.009045999999996942","-0.0014886666666657316"
"600","0.011832222222226265","0.011197777777777813"
"601","0.00806750000000278","-0.024628749999999755"
"602","0.00920000000000698","3.9333333333502196E-4"
"603","0.004439999999988231","0.014569999999999084"
"604","0.02388999999999797","-0.013632499999999048"
"605","0.013307142857144072","0.01248571428571513"
"606","0.007150000000002876","0.001654999999999518"
"607","0.03145222222222009","0.023281111111110815"
"608","0.040864999999995176","0.009703999999999624"
"609","0.014061428571427623","0.011372857142857486"
"610","0.07676000000000727","-0.005930000000002877"
"611","0.0","0.0"
"612","0.030866666666668152","-0.022410000000000707"
"613","0.022323571428571016","-0.01993071428571458"
"614","0.0183463414634157","-0.019893170731707297"
"615","0.023280357142856367","-0.026824999999999908"
"616","0.016131666666665545","-0.010956666666666207"
"617","0.015450000000000299","-0.01868403508771939"
"618","0.026308666666666092","-0.019473333333332715"
"619","0.012579166666667696","-0.01451500000000013"
"620","0.032670384615384955","-0.02073999999999957"
"621","0.06362307692307567","-0.02213923076923134"
"622","0.015330384615383882","-0.015555384615384518"
"623","0.010466666666665958","-0.013327777777778098"
"624","0.015596111111111711","-0.014306666666667332"
"625","0.01494470588235205","-0.01205058823529412"
"626","0.013869047619048709","-0.010727142857142269"
"627","0.014599999999997127","-0.010625384615385732"
"628","0.007395999999998537","-0.005666000000000437"
"629","0.0131525000000007","-0.012542500000000168"
"630","0.0084236363636385","-0.010529999999999262"
"631","0.0077822222222252435","-0.008315555555555361"
"632","0.005618333333334391","-0.009859999999999758"
"633","0.007786666666666362","-0.0067666666666666864"
"634","0.004620000000001718","-0.004588571428571291"
"635","0.005409999999997694","-0.007330000000000207"
"636","0.0054454545454544504","-0.006160000000000629"
"637","9.50000000003115E-4","-0.003190000000000026"
"638","0.016400000000011516","-0.0027599999999985414"
"639","0.0032925000000005866","-0.0023525000000006457"
"640","0.005240000000000183","-0.007432777777777844"
"641","0.024502500000002314","-0.011987500000000928"
"642","0.012293902439023511","-0.013161707317073145"
"643","0.020812222222223415","-0.017718888888889357"
"644","0.007359999999998479","-0.010584999999998956"
"645","0.033272857142851615","-0.011892857142857085"
"646","0.01895062499999689","-0.012410000000000254"
"647","0.005026666666670583","-0.006586666666666592"
"648","0.007741666666667868","-0.0129383333333332"
"649","0.00783249999999569","-0.015195000000002068"
"650","0.09203000000000218","-0.016825714285714253"
"651","0.01839818181818099","-0.0071745454545457865"
"652","0.0045300000000025875","-7.500000000035811E-4"
"653","0.03991000000000611","-0.0015500000000017167"
"654","0.0","0.0"
"655","0.0027500000000060254","-0.005819999999996384"
"656","0.012450909090913146","-0.024172727272727457"
"657","0.0","0.0"
"658","0.033676666666666764","-0.0129999999999999"
"659","0.006220000000000336","-0.002970000000004802"
"660","0.014688000000001367","-0.03763400000000132"
"661","0.010124166666666786","-0.00962124999999984"
"662","0.019946944444445187","-0.014325277777777244"
"663","0.014887307692306857","-0.015498846153846557"
"664","0.023543571428573377","-0.027141428571429822"
"665","0.005525999999996145","-0.011381999999999693"
"666","0.026833125000000013","-0.020757499999999873"
"667","0.014759767441860378","-0.01622906976744167"
"668","0.018157428571427253","-0.02628971428571449"
"669","0.01697642857142905","-0.01581321428571452"
"670","0.012880740740741933","-0.014158518518518837"
"671","0.013586315789472985","-0.009116578947367808"
"672","0.012576363636364234","-0.009488181818183056"
"673","0.006535999999999831","-0.013555999999998392"
"674","0.011432727272728533","-0.009339090909090363"
"675","0.009339999999998365","-0.006886666666666722"
"676","0.014861111111113386","-0.010857777777777263"
"677","0.008296249999999894","-0.005148749999999591"
"678","0.013344999999998386","-0.008597499999997371"
"679","0.006408749999999408","-0.005728750000000282"
"680","0.0","0.0"
"681","0.00547749999999958","-0.007614999999999927"
"682","0.005420000000000869","-0.003840000000001472"
"683","0.0076899999999895385","-0.01184000000000296"
"684","0.012849999999993145","-0.0049500000000026745"
"685","0.007659999999994227","-8.09999999997757E-4"
"686","0.07142500000000851","-0.023849999999997706"
"687","0.005936666666668107","-0.005026666666664663"
"688","0.0023949999999963723","-0.002729999999999677"
"689","0.007913448275862505","-0.007246206896551448"
"690","0.009467333333330904","-0.012345333333333505"
"691","0.018845000000005996","-0.024283333333332397"
"692","0.006773333333335074","-0.014576666666667867"
"693","0.016131499999997346","-0.00937799999999971"
"694","0.01688999999999889","-0.010050000000002038"
"695","0.01688249999999769","-0.010334999999999539"
"696","0.006520000000003278","-0.007549999999999102"
"697","0.004793333333334242","-0.004990000000000568"
"698","0.013750645161291774","-0.008717741935483667"
"699","0.0026699999999995803","-0.07535666666666667"
"700","0.006959999999992306","-0.11681000000000274"
"701","0.018890000000004646","-0.02233200000000011"
"702","0.037788333333331536","-0.017851666666667043"
"703","0.01829749999999919","-0.01599875000000095"
"704","0.008659999999977686","-0.0025400000000033174"
"705","0.040551428571428585","-0.0267799999999992"
"706","0.023702499999999904","-0.02535999999999916"
"707","0.00595065217391232","-0.006382173913043449"
"708","0.014003142857143658","-0.018743142857142507"
"709","0.01904156249999947","-0.01964875000000016"
"710","0.011948750000000655","-0.016778958333333538"
"711","0.009808571428570922","-0.010628571428571744"
"712","0.017395897435897305","-0.01736230769230792"
"713","0.0180136170212768","-0.018108085106383048"
"714","0.018543387096774132","-0.0294646774193555"
"715","0.018788823529413096","-0.0262138235294111"
"716","0.01382647058823118","-0.014515294117646542"
"717","0.013133333333331823","-0.011855714285714282"
"718","0.010185833333334967","-0.011726249999999569"
"719","0.006934166666669128","-0.011538333333333206"
"720","0.01719000000000074","-0.010749230769232117"
"721","0.09096777777777613","-0.028203333333332224"
"722","0.00759583333333443","-0.004558333333332776"
"723","0.0052883333333344495","-0.008164999999999681"
"724","0.015761111111110893","-0.009738888888888889"
"725","0.02287000000000066","-0.00929111111111188"
"726","0.013560000000001793","-0.006890000000000285"
"727","0.012220000000002784","-0.006965000000004551"
"728","0.0075100000000003","-0.006601111111110687"
"729","0.006040000000001082","-0.003483333333333505"
"730","0.0070020000000013734","-0.004354000000000013"
"731","0.0","0.0"
"732","0.0018240000000005808","-0.00910999999999973"
"733","0.0022900000000021237","-0.020979999999998"
"734","0.007970000000000255","-0.006764999999999688"
"735","0.0077079166666666294","-0.004470833333332831"
"736","0.012303000000001419","-0.008890500000000046"
"737","0.008533999999997377","-0.008684999999998767"
"738","0.012221999999997023","-0.009966000000000008"
"739","0.010866666666669763","-0.01069499999999953"
"740","0.015209999999996171","-0.007210000000000605"
"741","0.029000000000002045","-0.023581999999998972"
"742","0.013035000000016339","-0.009795000000000442"
"743","0.0054800000000057025","-0.0070699999999987995"
"744","2.099999999956026E-4","-0.008150000000000546"
"745","0.011318666666664968","-0.012210000000000557"
"746","0.01892666666667253","-0.010570555555554861"
"747","0.0","0.0"
"748","0.013895999999999731","-0.018919999999999958"
"749","0.09208666666666925","-0.0343599999999995"
"750","0.008850000000004835","-0.00819666666666663"
"751","0.002405000000003099","-0.008749999999999147"
"752","0.0","0.0"
"753","0.0","0.0"
"754","0.011514565217391987","-0.007279347826085476"
"755","0.0582459595959591","-0.027474242424242505"
"756","0.017580138888888604","-0.023187361111111304"
"757","0.08705492753623068","-0.026216521739131048"
"758","0.007379999999999588","-0.011166582278481088"
"759","0.017199523809524258","-0.018337142857142958"
"760","0.01845999999999975","-0.01279840000000064"
"761","0.014358999999998723","-0.008846999999999028"
"762","0.01597533333333357","-0.01652700000000067"
"763","0.009991851851852144","-0.01301370370370302"
"764","0.008160909090910192","-0.009764999999999318"
"765","0.005776666666666349","-0.007168000000001247"
"766","0.017649999999999128","-0.01410000000000089"
"767","0.014895294117646158","-0.013968823529411456"
"768","0.009690000000000103","-0.006318571428567209"
"769","0.010577999999999577","-0.007170000000000698"
"770","0.004140000000006694","-0.005440000000000111"
"771","0.0076044444444447225","-0.0074977777777757776"
"772","0.0063961538461552","-0.004526923076922502"
"773","0.0051175000000025506","-0.009312500000000057"
"774","0.010649999999998272","-0.008074999999997168"
"775","0.00552750000000124","-0.007530000000000925"
"776","0.007212500000001398","-0.006462499999997817"
"777","0.012116666666666257","-0.004609999999999559"
"778","0.008169999999999789","-0.015444999999999709"
"779","0.0018799999999998818","-5.400000000008731E-4"
"780","0.0027416666666664944","-0.006153333333333677"
"781","0.008735999999998967","-0.012556000000000723"
"782","0.0047999999999969335","-0.007041428571425408"
"783","0.006364117647058432","-0.0143035294117651"
"784","0.006821428571429676","-0.012819999999999863"
"785","0.0","0.0"
"786","0.026247999999998228","-0.013898000000000365"
"787","0.019838333333334884","-0.0097866666666692"
"788","0.0","0.0"
"789","0.011359999999999103","-0.007326000000003319"
"790","0.0","0.0"
"791","0.0","0.0"
"792","0.0","0.0"
"793","0.005243333333332008","-0.008613333333332918"
"794","0.20899729166666617","-0.41312885416666706"
"795","0.00963333333333575","-0.00847666666666195"
"796","0.0","0.0"
"797","0.09329999999998506","-0.029519999999997992"
"798","0.002268333333335685","-0.015520000000001014"
"799","0.006498999999999966","-0.0028259999999995953"
"800","0.007672500000003635","-0.00671000000000177"
"801","0.00617999999999963","-0.005995000000002193"
"802","0.015185862068965113","-0.015870000000000585"
"803","0.016522000000000103","-0.01047500000000028"
"804","0.01740947368421066","-0.011995789473683703"
"805","0.011630625000000394","-0.011150937500000513"
"806","0.010103023255813599","-0.00629930232558128"
"807","0.012066969696970308","-0.013972424242425494"
"808","0.016372500000001455","-0.011866249999998857"
"809","0.013188571428573072","-0.016757142857140854"
"810","0.018812777777778084","-0.01593166666666453"
"811","0.010341666666664176","-0.012071666666667369"
"812","0.009436363636362476","-0.011679545454546575"
"813","0.005530000000000967","-0.005035999999999064"
"814","0.008852499999997931","-0.010306249999999295"
"815","0.005294999999998495","-0.0090849999999989"
"816","0.008978333333331534","-0.015783333333333854"
"817","0.01311857142857217","-0.014163571428571433"
"818","0.006026666666667661","-0.00878500000000019"
"819","0.00540428571428464","-0.004641428571427956"
"820","0.007463999999998805","-0.0066220000000015485"
"821","0.006934000000001106","-0.011853999999998166"
"822","0.006869999999999266","-0.0085899999999981"
"823","0.0","0.0"
"824","0.01063999999999865","-0.012709999999998445"
"825","0.0","0.0"
"826","0.0033400000000038212","-0.007296666666666359"
"827","0.005894999999998873","-0.007614999999994154"
"828","0.011020000000000505","-0.00967499999999991"
"829","0.00631133333333338","-0.01083933333333249"
"830","0.0044333333333336595","-0.016694999999999755"
"831","0.005331428571425688","-0.006650000000000489"
"832","0.009270000000000778","-0.011367499999998643"
"833","0.025401111111114635","-0.023260000000000502"
"834","0.013167499999994448","-0.0060549999999999216"
"835","0.004869999999996821","-0.008806666666662485"
"836","0.0","0.0"
"837","0.006854999999994504","-0.008005000000007811"
"838","0.029849999999996157","-0.014900000000004354"
"839","0.0","0.0"
"840","0.0025255172413792557","-0.0032610344827580405"
"841","0.6411775000000001","-0.2768554166666668"
"842","0.008847500000008779","-0.006122499999996478"
"843","0.0","0.0"
"844","0.002684999999978288","-0.02440000000000353"
"845","0.004921999999999116","-0.010114000000002931"
"846","0.007253333333333149","-0.026178333333335264"
"847","0.0","0.0"
"848","0.01056600000000003","-0.0153419999999997"
"849","0.0","0.0"
"850","0.0","0.0"
"851","0.016450000000002754","-0.010800666666667288"
"852","0.02269029411764536","-0.018390294117647907"
"853","0.011695499999999814","-0.012695000000000078"
"854","0.00621846153846388","-0.006153076923074908"
"855","0.010957692307693688","-0.011327692307690885"
"856","0.019896666666666007","-0.011618333333334618"
"857","0.012227272727272975","-0.009170909090907483"
"858","0.012035999999999093","-0.020520000000001915"
"859","0.032450000000000756","-0.010849999999997806"
"860","0.008089999999999264","-0.00994999999999635"
"861","0.005707142857141483","-0.00944285714285696"
"862","0.006131666666666054","-0.010188333333333096"
"863","0.006600000000002655","-0.008550769230769636"
"864","0.005749999999997257","-0.0077275000000014415"
"865","0.004323333333331902","-0.010646666666663881"
"866","0.0","0.0"
"867","0.0","0.0"
"868","0.011306666666669685","-0.0041133333333363"
"869","0.009379999999997798","-0.01004999999999967"
"870","0.007401666666666529","-0.007608333333333661"
"871","0.014036666666669362","-0.01440333333333399"
"872","0.0040766666666651","-0.022590000000003368"
"873","0.004830000000005441","-0.01004999999999967"
"874","0.006886666666668854","-0.008259999999997566"
"875","0.0","0.0"
"876","0.013018888888886693","-0.013710000000000062"
"877","0.005425000000002456","-0.005287999999997695"
"878","0.006240000000002984","-0.0096324999999986"
"879","0.007835714285710489","-0.00350857142857259"
"880","0.01107277777777761","-0.013508333333334517"
"881","0.01371333333333761","-0.018209999999998654"
"882","0.011720666666663722","-0.005692666666668818"
"883","0.009335454545457367","-0.007166818181819291"
"884","0.014614999999995604","-0.01290000000000191"
"885","0.0","0.0"
"886","0.0024999999999977263","-0.026240000000001373"
"887","0.0","0.0"
"888","0.0","0.0"
"889","0.00436571428571548","-0.006274285714285709"
"890","0.0","0.0"
"891","0.0","0.0"
"892","0.012760000000000105","-0.005290000000009343"
"893","0.0","0.0"
"894","0.005209999999999937","-0.034330000000011296"
"895","0.002201999999999771","-0.011057999999999879"
"896","0.0","0.0"
"897","0.0","0.0"
"898","0.0","0.0"
"899","0.019729999999999137","-0.01175999999999533"
"900","0.014040909090906566","-0.019601818181819587"
"901","0.011544166666667651","-0.01773583333333484"
"902","0.005023333333333824","-0.010958888888888099"
"903","0.015979999999998995","-0.016859999999994102"
"904","0.014773333333335378","-0.010489999999994856"
"905","0.007856000000001018","-0.007654000000000849"
"906","0.0","0.0"
"907","0.011026666666666074","-0.020100000000006446"
"908","0.005192499999999711","-0.008267500000000538"
"909","0.001120000000000232","-0.009079999999997312"
"910","0.0","0.0"
"911","0.01855199999999968","-0.015623999999999683"
"912","0.0","0.0"
"913","0.012470000000000425","-0.00996499999999756"
"914","0.0025400000000033174","-0.006130000000005964"
"915","0.0019600000000039586","-0.017004999999997494"
"916","0.0","0.0"
"917","0.0","0.0"
"918","0.0","0.0"
"919","0.02242000000000388","-0.01355999999999824"
"920","0.0034500000000008413","-7.0999999999799E-4"
"921","0.0","0.0"
"922","0.005049999999990007","-0.02362000000000819"
"923","0.016171999999998833","-0.017401999999998453"
"924","0.011427499999996371","-0.009401250000000694"
"925","0.007737500000004616","-0.014227500000000504"
"926","0.006039999999995871","-0.008620000000003358"
"927","0.005571818181814272","-0.009867272727272532"
"928","0.00625999999999749","-0.003323333333334233"
"929","0.010513999999997737","-0.008622000000001151"
"930","0.0","0.0"
"931","0.0","0.0"
"932","0.0","0.0"
"933","0.006739999999998266","-0.011599999999999019"
"934","0.0","0.0"
"935","0.004680000000007567","-0.0061900000000036925"
"936","0.0","0.0"
"937","0.006415999999995847","-0.0056119999999978635"
"938","0.0","0.0"
"939","0.0","0.0"
"940","5.299999999999194E-4","-0.001825000000007293"
"941","0.010090000000000376","-0.01913999999999305"
"942","0.0","0.0"
"943","0.0","0.0"
"944","0.0","0.0"
"945","0.0","0.0"
"946","0.0","0.0"
"947","0.004685000000002049","-0.01620499999999936"
"948","0.010970000000001257","-0.01809250000000162"
"949","0.01083000000000034","-0.012634999999999508"
"950","0.011634444444444923","-0.014864444444444617"
"951","0.005543333333333085","-0.010769999999998467"
"952","0.015319999999999112","-0.027573333333332783"
"953","0.014169999999996463","-0.008785000000006704"
"954","0.0037299999999973465","-0.004234999999997768"
"955","0.014824999999994759","-0.015295000000001835"
"956","0.006610000000001411","-0.009255000000000754"
"957","0.011350000000007299","-0.020650000000003388"
"958","0.005995000000000417","-0.01229999999999798"
"959","0.0","0.0"
"960","0.006772000000000844","-0.01106200000000257"
"961","0.005240000000002946","-0.020689999999997138"
"962","0.011120000000001795","-0.012214999999997644"
"963","0.0033899999999960073","-0.0028199999999998226"
"964","8.899999999911756E-4","-0.002389999999998338"
"965","0.0","0.0"
"966","0.0","0.0"
"967","0.0","0.0"
"968","0.0","0.0"
"969","0.003469999999997716","-0.011899999999999503"
"970","0.0019700000000000273","-0.007029999999993208"
"971","0.004206666666670837","-0.002883333333334311"
"972","0.0","0.0"
"973","0.010846666666665783","-0.00985333333333216"
"974","0.01162181818181745","-0.009356363636363406"
"975","0.007012352941172019","-0.011561176470587749"
"976","0.020604285714294894","-0.00341285714285939"
"977","0.028476666666657973","-0.01582333333333234"
"978","0.00654285714285509","-0.009854285714284166"
"979","0.023510000000001696","-0.03196999999999406"
"980","0.017229999999983647","-0.0072199999999966735"
"981","0.0","0.0"
"982","0.01763999999998589","-0.0013800000000117052"
"983","0.0","0.0"
"984","0.00835333333333447","-0.006116666666669583"
"985","1.0000000000331966E-4","-0.018200000000000216"
"986","0.012147499999993983","-0.00796249999999965"
"987","0.017959999999999865","-0.043735000000005186"
"988","0.0","0.0"
"989","0.0","0.0"
"990","0.0","0.0"
"991","0.0","0.0"
"992","0.0","0.0"
"993","0.0","0.0"
"994","0.0","0.0"
"995","0.0","0.0"
"996","0.008612499999999912","-0.020197500000003643"
"997","0.01323222222222182","-0.010816666666665734"
"998","0.0","0.0"
"999","0.0","0.0"
"1000","0.0","0.0"
"1001","0.01419999999999888","-0.009280000000003952"
"1002","0.013640000000002317","-0.0018599999999935335"
"1003","0.012579999999999814","-0.02702000000000737"
"1004","0.005470000000006081","-0.007894999999997765"
"1005","0.007634999999998726","-0.00944999999999574"
"1006","0.004853333333336707","-0.010673333333331906"
"1007","0.0","0.0"
"1008","0.004990000000001753","-0.008166666666665398"
"1009","0.005849999999995248","-0.007089999999998042"
"1010","0.007975000000001842","-0.009912500000000435"
"1011","0.0","0.0"
"1012","0.0","0.0"
"1013","0.1705000000000041","-0.02130000000000365"
"1014","0.002519999999996969","-0.026219999999995025"
"1015","0.0","0.0"
"1016","0.0","0.0"
"1017","0.003024999999997391","-0.010332500000000522"
"1018","4.199999999983106E-4","-7.799999999988927E-4"
"1019","0.017196666666658682","-0.011699999999999969"
"1020","0.006213333333327853","-0.016678333333332535"
"1021","0.017646250000002084","-0.010440000000000005"
"1022","0.00988894736842682","-0.011764736842104714"
"1023","0.006279090909089291","-0.007135454545454742"
"1024","0.007558000000004483","-0.018184999999999008"
"1025","0.005215000000006853","-0.012859999999999872"
"1026","0.021420000000006212","-0.01544999999999419"
"1027","0.0017950000000013233","-6.450000000022271E-4"
"1028","0.010499999999993292","-0.018649999999993838"
"1029","0.0","0.0"
"1030","0.007162499999992633","-0.007272500000000903"
"1031","0.007587777777773554","-0.008053333333334776"
"1032","0.007655000000006851","-0.0034350000000031855"
"1033","0.008805000000002394","-0.01731499999999997"
"1034","0.01001499999999994","-0.012710000000001997"
"1035","0.0","0.0"
"1036","0.0","0.0"
"1037","0.0","0.0"
"1038","0.0","0.0"
"1039","0.0","0.0"
"1040","0.0","0.0"
"1041","0.0","0.0"
"1042","0.0","0.0"
"1043","0.0","0.0"
"1044","0.0","0.0"
"1045","0.0","0.0"
"1046","0.0","0.0"
"1047","0.0","0.0"
"1048","0.0","0.0"
"1049","0.003985000000001904","-0.009875000000000966"
"1050","0.0064449999999975915","-0.0038149999999994577"
"1051","0.013529999999995823","-0.013159999999999172"
"1052","0.0","0.0"
"1053","0.005389999999998452","-0.02978000000000236"
"1054","0.008703333333331878","-0.00644000000000015"
"1055","0.013739999999998531","-0.022570000000001755"
"1056","0.001449999999998397","-0.01387499999999875"
"1057","0.07966000000000169","-0.025690000000002062"
"1058","0.04746800000000064","-0.014893999999998186"
"1059","0.039644999999997786","-0.01442499999999806"
"1060","0.005000000000002558","-0.007739999999998304"
"1061","0.009735000000002714","-0.015190000000000481"
"1062","0.0029133333333343594","-0.0023733333333334863"
"1063","0.0","0.0"
"1064","0.006979999999995101","-0.004910000000005965"
"1065","0.0","0.0"
"1066","0.0","0.0"
"1067","0.0029200000000031423","-0.007040000000007041"
"1068","0.010170000000016444","-0.01313000000000386"
"1069","0.008851666666669663","-0.010838333333332173"
"1070","0.0041358823529440555","-0.006033529411762201"
"1071","0.0074636000000020885","-0.010278800000000672"
"1072","0.004036666666683193","-0.006726666666667806"
"1073","0.003780000000006112","-0.019209999999993954"
"1074","0.002129999999979759","-0.013560000000005346"
"1075","0.0022249999999957026","-0.005919999999999703"
"1076","0.0","0.0"
"1077","0.011946000000000368","-0.015952000000001475"
"1078","0.00678833333333273","-0.0197116666666665"
"1079","0.005652999999996666","-0.009682000000000811"
"1080","0.0","0.0"
"1081","0.019588333333333336","-0.023343333333334233"
"1082","0.0","0.0"
"1083","0.0","0.0"
"1084","0.0","0.0"
"1085","0.0","0.0"
"1086","0.0","0.0"
"1087","0.0","0.0"
"1088","0.0","0.0"
"1089","0.0","0.0"
"1090","0.0","0.0"
"1091","0.0","0.0"
"1092","0.0","0.0"
"1093","0.0","0.0"
"1094","0.0","0.0"
"1095","0.0","0.0"
"1096","0.0","0.0"
"1097","0.0","0.0"
"1098","0.013259999999995387","-0.002060000000000173"
"1099","0.010359999999998593","-0.011179999999995971"
"1100","0.00543000000000049","-0.01115000000000066"
"1101","0.1376799999999984","-0.039250000000000305"
"1102","0.21569999999999823","-0.06158999999999892"
"1103","0.21058999999999983","-0.06111500000000092"
"1104","0.0","0.0"
"1105","0.0","0.0"
"1106","0.0048266666666686815","-0.01588999999999885"
"1107","0.0","0.0"
"1108","0.005510000000001014","-0.009965000000001112"
"1109","0.002630000000003463","-0.02412999999999954"
"1110","0.007149999999995771","-0.011089999999995825"
"1111","0.010329999999996176","-0.006160000000008381"
"1112","0.00664000000000442","-0.0029999999999930083"
"1113","9.600000000205E-4","-0.009900000000001796"
"1114","0.004010000000000957","-0.011774999999996538"
"1115","0.0031699999999972306","-0.0015049999999980912"
"1116","0.007087500000004354","-0.004507499999998998"
"1117","0.0018361111111104833","-0.002743888888887843"
"1118","0.004058749999996891","-0.007018750000002072"
"1119","0.004807352941177231","-0.005072058823529555"
"1120","0.007417857142856731","-0.004932142857144177"
"1121","0.003887499999996417","-0.008901666666665994"
"1122","0.004191818181816778","-0.006237272727272692"
"1123","0.018950000000000244","-0.014929999999999666"
"1124","0.009456000000001078","-0.007386999999999707"
"1125","0.005961264367817255","-0.007794482758621178"
"1126","0.004383125000000376","-0.01125875000000054"
"1127","0.0","0.0"
"1128","0.009139705882352953","-0.008647058823529322"
"1129","0.011800000000000033","-0.006119999999999237"
"1130","0.013980000000000103","-0.01091000000000264"
"1131","0.00710999999999995","-0.0014000000000038426"
"1132","0.007759999999998435","-0.008289999999995246"
"1133","0.01188499999999948","-7.799999999988927E-4"
"1134","0.013014999999999333","-0.009694999999997123"
"1135","0.0022599999999988185","-0.00967499999999788"
"1136","0.0080633333333342","-0.008003333333334695"
"1137","0.00729500000000094","-0.006945000000001755"
"1138","0.015380000000003946","-0.005169999999999675"
"1139","0.01396000000000086","-0.005130000000001189"
"1140","0.006239999999998247","-0.0013099999999894862"
"1141","0.004349999999998744","-0.0065499999999936165"
"1142","0.006125000000000824","-0.006069999999997577"
"1143","0.0018500000000010175","-0.003969999999995366"
"1144","0.009784545454546939","-0.011142727272727238"
"1145","0.003812000000000637","-0.0030119999999996595"
"1146","0.009043999999995833","-0.007085999999995351"
"1147","0.008102000000002363","-0.005119999999999436"
"1148","0.09901111111111287","-0.033088888888888356"
"1149","0.008103333333332487","-0.006102222222223317"
"1150","0.005444999999999922","-0.007542500000000452"
"1151","0.006935000000002134","-0.0065450000000026876"
"1152","0.00453200000000038","-0.005658000000001095"
"1153","0.008790000000004738","-0.0061850000000021055"
"1154","0.006403333333333687","-0.005926666666667302"
"1155","0.005034999999999457","-0.005079999999999529"
"1156","0.008359999999996148","-0.0023199999999974352"
"1157","0.002909999999999968","-0.0047933333333366095"
"1158","0.0","0.0"
"1159","0.0027600000000038705","-0.010992500000000405"
"1160","0.01020124999999735","-0.007859999999999387"
"1161","0.00663882352940996","-0.005957647058822435"
"1162","0.01003666666666921","-0.007086666666666019"
"1163","0.0","0.0"
"1164","0.0","0.0"
"1165","0.0","0.0"
"1166","0.0","0.0"
"1167","0.10293999999999812","-0.07491999999999735"
"1168","0.014077777777777732","-0.008266666666667137"
"1169","0.011076874999999653","-0.006188750000001075"
"1170","0.0055359999999978985","-0.009631999999999152"
"1171","0.00926399999999319","-0.006732000000003779"
"1172","0.005720000000001353","-0.0025833333333361943"
"1173","0.002015384615385931","-0.002104102564102889"
"1174","0.0","0.0"
