"cell_id","acc_x","acc_y"
"0","0.0","0.0"
"1","0.0","0.0"
"2","0.0","0.0"
"3","0.0","0.0"
"4","0.004719999999977631","0.029919999999999947"
"5","0.019411428571430633","0.01404714285714286"
"6","0.012454285714284197","0.007701428571428558"
"7","0.0170371428571437","0.007018571428571445"
"8","0.007055000000002624","0.012881666666666606"
"9","0.018530000000001934","0.0022200000000001108"
"10","0.016240000000001586","0.005054999999999921"
"11","0.0","0.0"
"12","0.0","0.0"
"13","0.0","0.0"
"14","0.0","0.0"
"15","0.0","0.0"
"16","0.0","0.0"
"17","0.0","0.0"
"18","0.0","0.0"
"19","0.0","0.0"
"20","0.0","0.0"
"21","0.0","0.0"
"22","0.0","0.0"
"23","0.0","0.0"
"24","0.003373636363637512","0.0047740909090909275"
"25","0.0","0.0"
"26","0.025803333333333473","0.015646666666666597"
"27","0.022887333333333496","0.023671333333333287"
"28","0.026029999999995113","0.021825000000000094"
"29","0.004040000000001598","0.007312500000000055"
"30","0.0","0.0"
"31","0.0","0.0"
"32","0.0","0.0"
"33","0.0","0.0"
"34","0.0","0.0"
"35","0.0","0.0"
"36","0.0","0.0"
"37","0.0","0.0"
"38","0.0","0.0"
"39","0.017934999999999944","0.0044949999999999825"
"40","0.0","0.0"
"41","0.011853440860215135","0.014895913978494633"
"42","0.0065614634146333945","0.00554975609756101"
"43","0.0057092424242414395","0.007877424242424226"
"44","0.0036122807017536338","0.005721052631578989"
"45","0.006432941176469472","0.00672441176470586"
"46","0.0","0.0"
"47","0.0","0.0"
"48","0.0","0.0"
"49","0.0","0.0"
"50","0.0","0.0"
"51","0.026306666666663148","0.011396666666666796"
"52","0.0","0.0"
"53","0.014362857142857217","0.0158742857142856"
"54","0.011835000000000484","0.019585000000000186"
"55","0.019856666666659823","0.008606666666666651"
"56","0.007882500000004455","0.0074750000000002315"
"57","0.012886666666664345","0.011519999999999975"
"58","0.00747125000000004","0.007438749999999994"
"59","0.007229999999992742","0.0043966666666663086"
"60","0.0012400000000027944","0.006685000000000052"
"61","0.0014733333333272942","0.00937999999999987"
"62","0.00803999999999642","0.004256666666666427"
"63","0.0051100000000028345","0.007080000000000308"
"64","0.00615999999999417","0.007490000000000219"
"65","0.008565000000002598","0.014694999999999903"
"66","0.005910000000007187","0.008809999999999985"
"67","0.004046000000001016","0.004933999999999994"
"68","0.008347500000001062","0.004224999999999812"
"69","0.005074999999999126","0.004436666666666644"
"70","0.006970000000002585","0.011480000000000157"
"71","0.0032483333333329276","0.00801833333333346"
"72","0.0029033333333311853","0.006860000000000237"
"73","0.015522499999997663","0.0034374999999999822"
"74","0.006694999999997009","0.011342499999999811"
"75","0.009263333333336732","0.01233666666666681"
"76","0.009603333333333334","0.005141666666666526"
"77","0.005873333333334408","0.011779999999999853"
"78","0.012089999999997759","0.011067999999999944"
"79","0.01051999999999964","0.00589299999999997"
"80","0.012751666666664127","0.008086666666666575"
"81","0.011721999999999753","0.010989600000000052"
"82","0.0089805000000041","0.00732900000000003"
"83","0.010227142857140896","0.010698571428571415"
"84","0.0067182352941151345","0.006819411764705809"
"85","0.007881071428570863","0.009266428571428675"
"86","0.011738809523810985","0.010871666666666703"
"87","0.014316599999997948","0.008652800000000007"
"88","0.009341200000002062","0.008978199999999945"
"89","0.006570566037734854","0.009673018867924536"
"90","0.007563796296297356","0.008841944444444432"
"91","0.004557583333333189","0.006766166666666632"
"92","0.013567272727271984","0.010579999999999973"
"93","0.0","0.0"
"94","0.0","0.0"
"95","0.0","0.0"
"96","0.0","0.0"
"97","0.005710000000001436","0.0027999999999988034"
"98","0.007184999999999331","0.01404749999999999"
"99","0.01564000000000032","0.005615000000000148"
"100","0.01969666666666529","0.013896666666666668"
"101","0.025152500000004352","0.009680000000000133"
"102","0.010312500000004832","0.0029725000000000446"
"103","0.01453666666667175","0.0034099999999999873"
"104","0.006285999999998637","0.00932399999999962"
"105","0.00612307692307577","0.006129999999999815"
"106","0.0038900000000005263","0.010118000000000116"
"107","0.01130000000000031","0.0043000000000001926"
"108","0.00500250000000424","0.004814999999999792"
"109","0.006419999999994985","0.0022449999999993864"
"110","0.0030250000000009436","0.010540000000000216"
"111","0.013929999999994891","0.008840000000000181"
"112","0.005364999999997622","0.01116000000000028"
"113","0.0047200000000025","0.004489999999999661"
"114","0.0037799999999990064","0.01705000000000023"
"115","0.02381000000000455","0.011769999999999392"
"116","0.00206249999999919","0.010729999999999684"
"117","0.004935000000003242","0.0011100000000006105"
"118","0.004296666666668614","0.0070000000000002656"
"119","0.006766666666673397","0.009203333333333674"
"120","0.013588749999998484","0.012502500000000083"
"121","0.0103225000000009","0.012542500000000123"
"122","0.010114999999999874","0.011322499999999902"
"123","0.008635555555557062","0.01012111111111105"
"124","0.006606923076921917","0.010750769230769426"
"125","0.008961999999998227","0.01628799999999995"
"126","0.007832727272725297","0.011880000000000234"
"127","0.004805384615388255","0.013583846153846361"
"128","0.013303636363637204","0.02188909090909079"
"129","0.007116788990825258","0.007828899082568855"
"130","0.008907317073171288","0.008541341463414575"
"131","0.0091634328358203","0.011913134328358194"
"132","0.01101785714285646","0.014904047619047707"
"133","0.013546111111111654","0.013103888888888816"
"134","0.009365714285716345","0.013871904761904813"
"135","0.01587550000000206","0.0219040000000001"
"136","0.010399411764704864","0.01594176470588256"
"137","0.012240588235296541","0.01983470588235287"
"138","0.015840526315788327","0.018214736842105294"
"139","0.01973333333333353","0.01970416666666656"
"140","0.0","0.0"
"141","0.0","0.0"
"142","0.0","0.0"
"143","0.0","0.0"
"144","0.016027499999999993","0.027385000000000125"
"145","0.006292999999999438","0.011255999999999933"
"146","0.014873999999999032","0.014253500000000053"
"147","0.009938399999999917","0.012518400000000086"
"148","0.007691666666668133","0.010540416666666793"
"149","0.008038000000000522","0.0037200000000000345"
"150","0.0065899999999987","0.00504428571428558"
"151","0.007210454545454972","0.009747727272727285"
"152","0.005621111111110682","0.005239999999999985"
"153","0.01649222222222038","0.0066911111111110306"
"154","0.007549999999994839","0.003789999999999516"
"155","0.05960333333333286","0.03483999999999939"
"156","0.008647500000000896","0.0072995000000000585"
"157","0.014651666666665028","0.007688333333333297"
"158","0.012539999999997775","0.0048349999999990345"
"159","0.009119999999997574","0.00519000000000025"
"160","0.009446666666669046","0.0052466666666666955"
"161","0.011829999999996232","0.009240000000000137"
"162","0.006368000000001928","0.010442000000000107"
"163","0.007343333333332443","0.010288333333333455"
"164","0.011076666666665366","0.009456666666667482"
"165","0.007273846153845161","0.0063946153846153615"
"166","0.010069999999998913","0.009109999999999197"
"167","0.005397272727272195","0.006001818181817775"
"168","0.006891250000002458","0.01020500000000013"
"169","0.003589999999999094","0.0028800000000002157"
"170","0.005112500000000371","0.010091666666666757"
"171","0.013528636363636276","0.011371818181818195"
"172","0.01738499999999732","0.021355000000000013"
"173","0.008990000000005287","0.012581428571428457"
"174","0.011161724137931496","0.018658620689655146"
"175","0.012395555555552877","0.014680555555555487"
"176","0.014630000000000688","0.013625454545454748"
"177","0.014203888888888214","0.012195277777777846"
"178","0.0110606250000016","0.016391250000000135"
"179","0.01358523809523758","0.008575714285714322"
"180","0.01580124999999999","0.009868749999999926"
"181","0.03453521739130417","0.029493043478260924"
"182","0.01279892857142936","0.014987499999999931"
"183","0.017520799999998074","0.015360799999999983"
"184","0.021773846153848808","0.02241461538461544"
"185","0.01675333333333621","0.02020666666666651"
"186","0.010340000000004087","0.04127666666666693"
"187","0.0","0.0"
"188","0.0","0.0"
"189","0.0","0.0"
"190","0.012219130434783843","0.009813478260869386"
"191","0.01942000000000008","0.020363076923076963"
"192","0.007364761904761387","0.009052619047619004"
"193","0.011116923076922665","0.010032307692307793"
"194","0.003987391304349176","0.007873043478260972"
"195","0.010972500000000718","0.012853750000000108"
"196","0.006009999999999849","0.007490909090909235"
"197","0.004949117647058501","0.004809999999999929"
"198","0.008224074074073788","0.007422222222222359"
"199","0.00451888888888795","0.003131111111111393"
"200","0.021748571428572307","0.01803285714285709"
"201","0.020308461538462278","0.030806923076923044"
"202","0.012698749999998427","0.012812499999999893"
"203","0.006720000000000208","0.0050700000000005"
"204","0.007805555555552562","0.00795222222222315"
"205","0.005645000000000048","0.005038333333333256"
"206","0.004928333333332091","0.004628333333333974"
"207","0.005936000000001229","0.0033839999999997874"
"208","0.010238333333333571","0.00505500000000018"
"209","0.004402999999999935","0.008048999999999928"
"210","0.007632307692306794","0.0041415384615385385"
"211","0.005804999999996359","0.009458333333334087"
"212","0.006770000000003051","0.004962499999999981"
"213","0.009163333333333412","0.007335000000000018"
"214","0.011808888888890264","0.008474444444444352"
"215","0.004777500000002988","0.0068550000000002775"
"216","0.006655000000003852","0.005114999999999537"
"217","0.01961875000000113","0.011959999999999749"
"218","0.014559166666666457","0.022641666666667042"
"219","0.010888947368421872","0.014294210526316105"
"220","0.010332000000001073","0.011956999999999862"
"221","0.007780588235292766","0.016204705882352885"
"222","0.012211111111112258","0.01584333333333375"
"223","0.027850909090908905","0.030556363636364138"
"224","0.0041050000000009135","0.007910000000000306"
"225","0.009086666666667674","0.00791000000000006"
"226","0.013653333333333453","0.010329523809524021"
"227","0.012229000000000666","0.009522999999999903"
"228","0.013202499999994899","0.021143750000000017"
"229","0.02443428571428541","0.021874285714285895"
"230","0.016895454545456025","0.018470909090909468"
"231","0.0014833333333446792","0.017793333333332956"
"232","0.0","0.0"
"233","0.022589999999993893","0.015540000000001442"
"234","0.0","0.0"
"235","0.005333333333331562","0.009079166666667119"
"236","0.02475400000000718","0.009747999999999025"
"237","0.01013461538461463","0.008531538461538273"
"238","0.024621999999994593","0.02348199999999956"
"239","0.010959729729729768","0.011606216216216311"
"240","0.007547000000000459","0.00680640000000011"
"241","0.008276666666667007","0.013353611111111045"
"242","0.007441875000000264","0.00605062499999931"
"243","0.0027363157894733092","0.008486842105263386"
"244","0.007339999999999236","0.003915000000000335"
"245","0.011788536585364176","0.012832195121951277"
"246","0.011568333333333057","0.011856944444444541"
"247","0.005546086956524168","0.007040000000000321"
"248","0.010922307692307953","0.016351923076922886"
"249","0.005441111111111575","0.0041988888888890115"
"250","0.005573999999999657","0.009928000000000558"
"251","0.005057142857142237","0.005124285714285597"
"252","0.0074275000000012525","0.007426874999999611"
"253","0.004985000000000461","0.0077350000000004915"
"254","0.009373999999999683","0.005691000000000379"
"255","0.014756249999998694","0.005576249999999838"
"256","0.008941666666662703","0.003371666666666625"
"257","0.010388571428569955","0.0072871428571430795"
"258","0.003251000000001625","0.005865000000000365"
"259","0.002016666666664927","0.0045650000000000785"
"260","0.0038792307692312113","0.006842307692306913"
"261","0.004878235294115829","0.007678823529411758"
"262","0.006182000000002574","0.009893999999999537"
"263","0.00872333333333349","0.008837500000000423"
"264","0.013618888888889243","0.009989999999999968"
"265","0.016191666666665345","0.010695833333333127"
"266","0.02558250000000406","0.009059999999999846"
"267","0.018788181818175594","0.03180090909090923"
"268","0.021568888888891833","0.01561777777777825"
"269","0.012460624999999226","0.01580812499999973"
"270","0.011109166666668576","0.013394166666666004"
"271","0.034693333333336795","0.11286666666666711"
"272","0.0","0.0"
"273","0.041410909090908436","0.07988272727272742"
"274","0.009206111111112136","0.028364999999999974"
"275","0.02207999999998833","0.014750000000000263"
"276","0.0212459999999993","0.02774299999999954"
"277","0.011147499999999866","0.01379999999999848"
"278","0.01436142857142743","0.01590857142857186"
"279","0.04181999999998709","0.08085000000000164"
"280","0.010717499999998381","0.023280000000001078"
"281","0.009559999999993352","0.007339999999999236"
"282","0.008693333333331074","0.01263833333333301"
"283","0.0","0.0"
"284","0.04991999999999308","0.0352800000000002"
"285","0.06080000000000041","0.019357499999999472"
"286","0.005426349206349891","0.004808095238095136"
"287","0.006107448979591839","0.0061161224489795375"
"288","0.0041215151515148745","0.0048722727272726115"
"289","0.007049310344826679","0.004411034482758729"
"290","0.005883243243243474","0.0052597297297298"
"291","0.004943846153846028","0.005677076923076613"
"292","0.003480789473684821","0.009005526315789792"
"293","0.004456250000001605","0.0036656250000002277"
"294","0.015360000000000559","0.029851666666666728"
"295","0.007795652173912484","0.008425652173912885"
"296","0.007390555555554851","0.004926111111111137"
"297","0.004175555555554982","0.002895555555555676"
"298","0.006953636363636339","0.004257272727272236"
"299","0.005839545454548042","0.0031681818181820243"
"300","0.00854722222222056","0.0039466666666661725"
"301","0.005529473684212112","0.006076842105263188"
"302","0.003187142857141469","0.0037042857142863183"
"303","0.005333636363636949","0.005748181818181728"
"304","0.002809999999999491","0.010698000000000008"
"305","0.004038000000001318","0.006513999999999598"
"306","0.0","0.0"
"307","0.013526249999999074","0.009922499999999612"
"308","0.008256666666667911","0.005148333333333828"
"309","0.005555714285717629","0.005004285714285318"
"310","0.023529999999999517","0.009936000000000434"
"311","0.012869047619048163","0.009893809523809693"
"312","0.022517142857142552","0.018154285714285377"
"313","0.008637000000001649","0.007863000000000574"
"314","0.009542941176472319","0.010813529411764519"
"315","0.004956666666667313","0.01232333333333339"
"316","0.02669230769230834","0.038803846153846175"
"317","0.01137555555554886","0.01352555555555589"
"318","0.015321111111109391","0.022801111111111223"
"319","0.0116885294117641","0.010488235294117732"
"320","0.042629999999999765","0.0231679999999999"
"321","0.005262499999998245","0.021008333333333518"
"322","0.017290000000006245","0.008912500000000545"
"323","0.008916666666659504","0.023220000000000834"
"324","0.06185250000000586","0.031095000000000317"
"325","0.020863999999994574","0.01568799999999797"
"326","0.0","0.0"
"327","0.013990000000001146","0.024293999999999726"
"328","0.012069999999989514","0.016926666666666534"
"329","0.022433333333329603","0.009666666666667231"
"330","0.0","0.0"
"331","0.00727272727272736","0.014368181818182084"
"332","0.005671562500000671","0.0070504687499999275"
"333","0.00946999999999983","0.007460240963855563"
"334","0.006812727272726392","0.006456969696969527"
"335","0.004950185185185156","0.005038518518518434"
"336","0.007915833333330902","0.004063333333333801"
"337","0.023338437500000087","0.01311750000000006"
"338","0.013364324324324307","0.009403783783783913"
"339","0.00983870967741946","0.006079032258064387"
"340","0.014255384615382493","0.011040384615384643"
"341","0.0072694117647054916","0.011248823529411714"
"342","0.00370166666666479","0.006163333333333447"
"343","0.0","0.0"
"344","0.007452916666667105","0.005552916666667018"
"345","0.006032222222223993","0.005055555555554629"
"346","0.007544444444443836","0.009173333333333231"
"347","0.004835555555554865","0.004901111111110702"
"348","0.005141428571428313","0.0069971428571434"
"349","0.0068033333333351225","0.009125555555555288"
"350","0.0033375000000006594","0.008554999999999868"
"351","0.005191818181817676","0.008282727272727476"
"352","0.008729999999999016","0.007553749999999582"
"353","0.004779499999999359","0.006679499999999816"
"354","0.004628571428570284","0.004971428571428278"
"355","0.005112666666666143","0.005771333333332743"
"356","0.0021660000000018444","0.005565000000000353"
"357","0.0043118181818174025","0.007960909090908882"
"358","0.01083999999999937","0.011150666666666828"
"359","0.04319499999999997","0.019445555555555296"
"360","0.005983250000000417","0.009319000000000254"
"361","0.012481666666664873","0.017040000000000166"
"362","0.015976428571427448","0.014959999999999671"
"363","0.01356999999999952","0.01296399999999996"
"364","0.05205111111111352","0.03672000000000056"
"365","0.011817272727275901","0.00966090909090912"
"366","0.022459600000001387","0.018071200000000048"
"367","0.01407166666666626","0.03274833333333375"
"368","0.019079999999995323","0.006442500000000351"
"369","0.019197500000004197","0.023762500000000575"
"370","0.014265999999997803","0.01986600000000003"
"371","0.013120000000003055","0.006738333333333142"
"372","0.036325000000001495","0.02776999999999985"
"373","0.005316666666663157","0.022550000000000143"
"374","0.032588571428567956","0.031125714285714676"
"375","0.0038900000000126056","0.0022100000000015996"
"376","0.0","0.0"
"377","0.01322749999999906","0.016186250000000735"
"378","0.008520000000000931","0.007995294117646564"
"379","0.014218510638297847","0.0075253191489361"
"380","0.008625697674418264","0.008910697674418506"
"381","0.009642631578947345","0.012095087719298124"
"382","0.012804285714287314","0.008172142857142755"
"383","0.35497588235294003","0.4919999999999997"
"384","0.009116428571429833","0.007324999999998916"
"385","0.00943333333333179","0.00743492753623216"
"386","0.011307049180328174","0.007023934426229499"
"387","0.0051460606060630175","0.00661090909090923"
"388","0.007864117647058907","0.004274705882352237"
"389","0.00932040000000427","0.012625200000000092"
"390","0.7870822580645153","0.20985096774193643"
"391","0.010853999999999786","0.006426000000000087"
"392","0.003786250000000102","0.0067600000000012095"
"393","0.006980000000005759","0.0016099999999958925"
"394","0.00887555555555587","0.005189999999999312"
"395","0.005124999999992497","0.007165000000000532"
"396","0.0069125000000020975","0.009417500000000523"
"397","0.005443636363635046","0.003825454545454092"
"398","0.003918333333333616","0.0031283333333336216"
"399","0.003336250000001151","0.0040999999999997705"
"400","0.005270833333336","0.005977500000000635"
"401","0.005824285714287011","0.006719999999998854"
"402","0.008613428571428423","0.004935714285713999"
"403","0.003981632653061588","0.004515306122448643"
"404","0.0036714035087724918","0.003456140350877241"
"405","0.013401063829787636","0.012579148936170513"
"406","0.007026666666667238","0.00836851851851862"
"407","0.0211283333333346","0.021016666666666833"
"408","0.008096000000002235","0.01189749999999945"
"409","0.011313636363641162","0.010412727272725969"
"410","0.02189333333333347","0.010713333333333352"
"411","0.01148200000000088","0.010647999999999058"
"412","0.0072542857142881955","0.011367142857143417"
"413","0.026448500000000052","0.03209500000000025"
"414","0.010880000000000223","0.0313683333333327"
"415","0.001109999999982847","0.005220000000001335"
"416","0.0","0.0"
"417","0.0327350000000024","0.025379999999998404"
"418","0.06178499999999687","0.012563750000000429"
"419","0.006339999999994461","0.0013500000000021828"
"420","0.008689999999987208","0.007499999999998508"
"421","0.009560000000000457","0.015527499999998362"
"422","0.010083333333336478","0.023203333333332427"
"423","0.0","0.0"
"424","0.011970000000000544","0.011299999999998533"
"425","0.022903333333333522","0.017251111111111328"
"426","0.009350882352940878","0.012385588235293454"
"427","0.016238947368420995","0.013816315789472879"
"428","0.0092182352941161","0.008377058823530348"
"429","0.00892545454545351","0.011597272727272602"
"430","0.00862944444444549","0.00868444444444489"
"431","0.005037692307692892","0.0045684615384613035"
"432","0.010143846153846506","0.009380384615384766"
"433","0.0075956756756755065","0.006357837837837385"
"434","0.008595833333334172","0.008829166666666962"
"435","0.008342857142855462","0.0029271428571416686"
"436","0.009444666666665569","0.009961999999999686"
"437","0.28143200000000074","0.549037"
"438","0.005677391304347755","0.009791304347826282"
"439","0.006581428571428611","0.0030585714285718624"
"440","0.00931799999999896","0.023418000000000206"
"441","0.006632222222221805","0.01468666666666607"
"442","0.007063333333333175","0.0038111111111109133"
"443","0.004763750000002176","0.003237499999999116"
"444","0.0049549999999989325","0.004400000000000404"
"445","0.009130000000000749","0.006522500000000875"
"446","0.003656250000001471","0.009524999999999562"
"447","0.007389999999998527","0.01638666666666566"
"448","0.006200000000006867","4.500000000007276E-4"
"449","0.0","0.0"
"450","0.004049999999999443","0.0018500000000010175"
"451","0.012934999999998809","0.007742499999999097"
"452","0.46491649999999946","0.15222275000000024"
"453","0.41079894736842104","0.21944263157894825"
"454","0.011890000000000475","0.013535833333332784"
"455","0.048408461538464016","0.026344615384616077"
"456","0.012864999999995538","0.008778333333334961"
"457","0.0571599999999961","0.030869999999996622"
"458","0.06655999999999551","0.042759999999999465"
"459","0.004138000000000375","0.0059159999999998545"
"460","0.0","0.0"
"461","0.0","0.0"
"462","0.011150000000004212","0.024282499999999096"
"463","0.0163700000000091","0.025609999999996802"
"464","0.010539999999984673","0.019999999999999574"
"465","0.01661000000000712","0.007787500000000058"
"466","0.016896666666672406","0.020649999999997466"
"467","0.02259000000001521","0.01320749999999915"
"468","0.04634399999999914","0.08588000000000022"
"469","0.054763333333321874","0.058196666666664974"
"470","0.006821904761906599","0.00852190476190527"
"471","0.007855999999995911","0.004869999999999664"
"472","0.136472666666666","0.36088333333333344"
"473","0.018983548387099643","0.01803612903225841"
"474","0.010352999999996193","0.009258999999999773"
"475","7.300000000043383E-4","0.030599999999996186"
"476","0.0339133333333379","0.020379999999998216"
"477","0.024985714285715183","0.011890000000000558"
"478","0.012227499999998948","0.004380000000001161"
"479","0.008132500000001208","0.004903750000000429"
"480","0.010183181818179838","0.011362272727273425"
"481","0.012321111111115593","0.0041977777777779425"
"482","0.00888500000000203","0.003642499999999771"
"483","0.01236499999999848","0.016725833333332513"
"484","0.012510277777776283","0.021316111111110994"
"485","0.011368749999999705","0.010134375000000695"
"486","0.005020000000001357","0.006297500000000511"
"487","0.005070769230770203","0.005080769230768731"
"488","0.0032733333333349415","0.006496666666667039"
"489","0.013889999999998182","0.060927499999999135"
"490","0.007040000000000646","0.00414999999999921"
"491","0.006863333333332851","0.005563333333332328"
"492","0.0058760000000006585","0.008795999999999537"
"493","0.004889999999999617","0.0023949999999981486"
"494","0.01538666666666444","0.008226666666666679"
"495","0.03100000000000591","0.008780000000001564"
"496","0.004610000000006664","0.001100000000000989"
"497","0.006619999999998072","0.0021299999999975228"
"498","0.0036100000000018895","6.000000000128125E-5"
"499","0.01213692307692272","0.008814615384615912"
"500","0.012470526315789692","0.010222105263158155"
"501","0.007194375000000086","0.010791875000000006"
"502","0.020989999999995252","0.018376666666666708"
"503","0.01022249999999758","0.016384999999997873"
"504","0.026993571428573455","0.02607714285714278"
"505","0.008371428571424287","0.010611428571429318"
"506","3.0999999999892225E-4","0.0033399999999979"
"507","0.008318000000002712","0.005650000000002109"
"508","0.005310000000008586","0.0014300000000027069"
"509","0.0","0.0"
"510","0.0","0.0"
"511","0.0","0.0"
"512","0.011334999999995432","0.02123500000000078"
"513","0.030437499999997897","0.04971625000000035"
"514","0.01954199999999844","0.058910000000000906"
"515","0.008862500000002882","0.051719999999998656"
"516","0.02646000000000015","0.06375499999999867"
"517","0.01500437499999846","0.008909374999999997"
"518","0.029076666666666567","0.018710000000001042"
"519","0.0322979999999989","0.03162250000000011"
"520","0.013348888888892062","0.023534999999999567"
"521","0.006726000000000335","0.004205333333333528"
"522","0.009851999999998284","0.0024700000000017043"
"523","0.007897999999999072","0.006780999999999792"
"524","0.0023820000000021936","0.01016599999999741"
"525","0.009102307692304844","0.010675384615384932"
"526","0.011920000000001868","0.020252727272726968"
"527","0.026750588235294553","0.020688529411765067"
"528","0.00573200000000611","0.004131999999999891"
"529","0.006134999999995709","0.01036000000000096"
"530","0.011835000000004925","0.006975000000002396"
"531","0.0156599999999969","0.006389999999999674"
"532","0.007496666666667077","0.0073311111111106836"
"533","0.0071510000000003515","0.007387999999999906"
"534","0.015377142857144374","0.018192857142857375"
"535","0.009238235294117955","0.007724705882352242"
"536","0.01091000000000264","0.00706166666666815"
"537","0.006630000000001246","0.014200000000002433"
"538","0.004859999999993647","0.023660000000003123"
"539","0.008960000000001855","0.002709999999998658"
"540","0.010904999999999868","0.013156666666667741"
"541","0.017479999999999052","0.008739999999999526"
"542","0.0","0.0"
"543","0.0","0.0"
"544","0.0","0.0"
"545","0.017418571428568237","0.012034285714285886"
"546","0.004963333333338464","0.005243333333334969"
"547","0.006803999999999429","0.005259714285714827"
"548","0.1992842307692294","0.39462807692307805"
"549","0.012862352941179388","0.007492941176471139"
"550","0.009655555555555553","0.009943333333333094"
"551","0.019589999999997332","0.020945000000000213"
"552","0.022699999999986176","0.00947999999999638"
"553","0.007199999999997431","0.010660000000001446"
"554","0.004602222222220891","0.005910000000000082"
"555","0.0","0.0"
"556","0.03741000000000838","0.01226000000000127"
"557","0.0","0.0"
"558","0.0","0.0"
"559","0.053377499999999856","0.07321500000000025"
"560","0.03233000000000378","0.07598285714285678"
"561","0.0","0.0"
"562","0.025199999999998113","0.033666666666666366"
"563","0.07421250000000157","0.1407474999999998"
"564","0.027974285714285205","0.006857142857143624"
"565","0.03398999999999619","-0.03388499999999972"
"566","8.499999999997954E-4","0.01921500000000087"
"567","0.01414444444444227","0.01317333333333279"
"568","0.01045875000000096","0.008677500000000116"
"569","0.012115000000002615","-0.01743333333333356"
"570","0.8565059999999992","-0.042094000000000166"
"571","0.008051111111110072","-0.0012188888888893246"
"572","0.014852666666665234","0.002847333333332832"
"573","0.004998461538461422","-0.001266923076923759"
"574","0.01218363636363471","0.0022668181818184378"
"575","0.011819230769232055","-0.011250000000000426"
"576","0.0038399999999979193","-0.004769999999998831"
"577","0.008405999999996538","-0.005873999999999313"
"578","0.008425714285715051","-0.005014285714286716"
"579","0.010494999999999699","-0.00417500000000004"
"580","0.005054285714287232","-0.0031842857142844344"
"581","0.00569238095238166","-0.007180952380952732"
"582","0.0054000000000051784","0.00826000000000171"
"583","0.007365000000003619","-0.002414999999999168"
"584","0.008980000000001098","0.004653333333332436"
"585","0.010409999999999068","-0.004825000000000894"
"586","0.0066549999999949705","-0.002349999999999852"
"587","0.0","0.0"
"588","0.004680000000000462","0.008229999999997517"
"589","0.001006666666666452","0.003306666666667013"
"590","0.0046366666666628475","-0.003979999999999724"
"591","0.0013049999999985573","-0.00464500000000001"
"592","0.0","0.0"
"593","0.009426000000000555","0.005302000000000362"
"594","0.0","0.0"
"595","0.004722499999999741","-0.004756250000000906"
"596","0.002954499999998461","0.002003000000000199"
"597","0.01637399999999616","-0.002573999999999188"
"598","0.0","0.0"
"599","0.0","0.0"
"600","0.04661000000000115","-6.099999999982231E-4"
"601","0.12882833333333268","0.15926037037037033"
"602","0.00590666666666569","0.007136666666666495"
"603","0.0","0.0"
"604","0.0","0.0"
"605","0.022784999999998945","-0.00852500000000056"
"606","0.022931666666669532","0.013573333333334029"
"607","0.019631999999998585","-0.03888000000000034"
"608","0.017485999999999537","-0.004710000000000036"
"609","0.009813999999997236","0.018940000000000623"
"610","0.043556999999999846","-0.013776999999999973"
"611","0.034153333333333334","-0.026849999999998413"
"612","0.02426750000000444","-0.02687750000000033"
"613","0.05122454545454736","-0.05675545454545434"
"614","0.02240466666666645","-0.015134000000000944"
"615","0.009656666666667016","-0.008811666666667032"
"616","0.013430000000005294","-0.018110000000001493"
"617","0.017379999999999285","-0.013813749999998848"
"618","0.01664700000000181","-0.0064159999999994"
"619","0.015559117647059332","-0.007519411764705745"
"620","0.013907499999999118","-0.004970999999999037"
"621","0.015101199999999721","-0.014944799999999958"
"622","0.0189481481481457","-0.011845925925926029"
"623","0.017271999999998046","-0.012969500000000345"
"624","0.007425499999999552","-0.014988499999999228"
"625","0.03360869565217668","-0.03367130434782602"
"626","0.006028823529411319","-0.006342352941177112"
"627","0.014186923076922998","-0.015346923076922536"
"628","0.0","0.0"
"629","0.01008555555555388","-0.014954444444445159"
"630","0.007909999999998973","-0.0070650000000025415"
"631","0.05963333333333291","-0.04036999999999935"
"632","0.06272999999999485","-0.05112500000000075"
"633","0.1349000000000018","-0.04010999999999498"
"634","0.0024400000000035504","-0.013030000000002318"
"635","0.0675900000000027","-0.02174999999999727"
"636","0.015775999999999613","-0.006902000000000186"
"637","0.0047200000000025","-0.0029399999999988324"
"638","0.014059999999993522","-6.300000000045713E-4"
"639","0.0029899999999969396","-0.0026200000000002888"
"640","3.600000000005821E-4","-0.002784999999997595"
"641","0.9450033333333338","-0.208154666666668"
"642","0.010047333333333578","-0.0100273333333341"
"643","0.009857999999996281","-0.009203999999999723"
"644","0.0094033333333338","-0.006103333333332017"
"645","0.0","0.0"
"646","0.0033933333333303986","-0.006313333333333541"
"647","0.0","0.0"
"648","0.005110000000001946","-0.006090000000000373"
"649","0.002009999999984302","-0.06157000000000323"
"650","0.0","0.0"
"651","0.0018699999999824968","-1.7000000000066962E-4"
"652","0.0","0.0"
"653","0.0","0.0"
"654","0.0","0.0"
"655","0.00887000000001592","-3.8000000000337764E-4"
"656","0.0","0.0"
"657","0.027028333333333876","-0.018776666666665776"
"658","0.028663999999999978","-0.005636000000000507"
"659","0.0","0.0"
"660","0.028567058823530566","-0.02892823529411798"
"661","0.014632380952378479","-0.012582857142857187"
"662","0.014030000000000495","-0.02450999999999835"
"663","0.013781000000000798","-0.011372499999999341"
"664","0.01457000000000086","-0.004305000000001631"
"665","0.007082499999995662","-0.003982499999999334"
"666","0.02242000000000033","-0.010250000000001869"
"667","0.010981707317075349","-0.007631219512195465"
"668","0.007405483870966218","-0.005314838709677685"
"669","0.009670555555556761","-0.016226111111111052"
"670","0.009866315789473015","-0.009369999999999422"
"671","0.00652041666666651","-0.007303124999999966"
"672","0.005270909090909225","-0.006228636363636009"
"673","0.44470537037037117","-0.3022105555555554"
"674","0.004093829787234548","-0.00497425531914937"
"675","0.004937999999999931","-0.010602000000000089"
"676","0.013790526315790206","-0.020222631578946926"
"677","0.015517142857141104","-0.02072285714285777"
"678","0.009938000000001068","-0.028763999999999613"
"679","0.013644999999996799","-0.012642499999999224"
"680","0.0","0.0"
"681","0.0","0.0"
"682","0.00986000000000331","-0.0039000000000003845"
"683","0.0024075000000021163","-0.007879999999999221"
"684","0.0","0.0"
"685","0.004980000000003315","-0.007089999999998042"
"686","0.005830000000000742","-0.006570000000001149"
"687","0.006206666666663807","-0.0012333333333328274"
"688","0.01480230769230618","-0.007647692307691647"
"689","0.008267777777776826","-0.008868333333332541"
"690","0.003881818181820439","-0.0038790909090919774"
"691","0.002892499999997966","-0.004207500000000586"
"692","0.02115999999999474","-0.019899999999999807"
"693","0.0","0.0"
"694","0.008405000000003326","-0.005420000000000869"
"695","0.002756666666665334","-0.009313333333333654"
"696","0.007300000000014961","-0.07684000000000069"
"697","0.005530000000007362","-0.0023700000000026478"
"698","0.006649999999993383","-0.005059999999996734"
"699","0.007109999999997285","-0.0077400000000018565"
"700","0.0","0.0"
"701","0.012760000000000105","-0.005829999999997781"
"702","0.006929999999982783","-0.033370000000001454"
"703","0.012309999999985166","-0.03126999999999924"
"704","0.022241999999994277","-0.08051600000000078"
"705","0.0049400000000001665","-0.022099999999998232"
"706","0.009683333333333414","-0.010296666666665288"
"707","0.014943142857143104","-0.015214571428571284"
"708","0.03169575757575847","-0.015223333333333844"
"709","0.010089565217392914","-0.014764782608695393"
"710","0.011745238095237621","-0.012189999999999014"
"711","0.0","0.0"
"712","0.004680000000000462","-0.01576000000000022"
"713","0.010421363636362651","-0.007673181818182087"
"714","0.014293103448273912","-0.010827931034483606"
"715","0.012355789473686155","-0.009424736842105045"
"716","0.006136538461538985","-0.01067269230769218"
"717","0.009309000000000367","-0.013157666666666283"
"718","0.009506842105262822","-0.017335789473683673"
"719","0.019738437499998596","-0.08015046874999987"
"720","0.004510000000000384","-0.009300833333333832"
"721","0.006021428571428495","-0.008091428571429304"
"722","0.00391666666666642","-0.0021266666666655"
"723","0.04234444444444326","-0.025766666666666223"
"724","0.009171428571429528","-0.0036071428571425707"
"725","0.007431666666666281","-0.004967083333333437"
"726","0.005498333333332421","-0.006800000000000139"
"727","0.004190000000001248","-0.007582500000001602"
"728","0.003984000000002652","-0.0034179999999977896"
"729","0.0064300000000088176","-0.004870000000000374"
"730","0.004495000000002136","-0.005385000000000417"
"731","0.007180000000005293","-0.014719999999996958"
"732","7.299999999972329E-4","-0.0011399999999994748"
"733","0.0033399999999990846","-0.00883000000000204"
"734","0.0036940000000001303","-0.004687999999998027"
"735","0.00836124999999921","-0.006542499999998785"
"736","0.20430233333333447","-0.13365166666666706"
"737","0.020125294117648577","-0.01231176470588229"
"738","0.007989999999998077","-0.00952400000000111"
"739","0.0027799999999952468","-0.004484285714287495"
"740","0.012260000000002455","-0.02519500000000008"
"741","0.003659999999996444","-0.008390000000002118"
"742","0.010424285714289485","-0.0076528571428557"
"743","0.0019800000000032014","-0.017840000000010292"
"744","0.023690000000001987","-0.044789999999999"
"745","0.01797000000000537","-0.013295000000001167"
"746","0.0032799999999895135","-0.0014500000000019497"
"747","0.0","0.0"
"748","0.0076800000000218915","-0.010539999999998884"
"749","0.00895250000000658","-0.030162500000000314"
"750","0.011689999999987322","-0.004999999999999005"
"751","0.008844999999998512","-0.012758333333334093"
"752","0.0","0.0"
"753","0.010258518518517416","-0.006465925925925357"
"754","0.006567317073171329","-0.008990853658536146"
"755","0.01346024390243933","-0.015039390243902122"
"756","0.019784074074073763","-0.02977833333333398"
"757","0.019164210526317928","-0.016533684210524917"
"758","0.0035724590163943655","-0.003347704918033482"
"759","0.00792727272727347","-0.013865454545454787"
"760","0.014106249999999912","-0.010179999999999634"
"761","0.007904166666665565","-0.00980750000000071"
"762","0.01141571428571567","-0.012144999999999915"
"763","0.008874705882349666","-0.00721000000000165"
"764","0.011802173913042772","-0.013543913043477573"
"765","0.4531630952380937","-0.33293857142857053"
"766","0.0025354878048782442","-0.003291219512195562"
"767","0.00395499999999771","-0.005325000000006241"
"768","0.007341666666668208","-0.011719999999999805"
"769","0.00341249999999782","-0.011222500000001467"
"770","0.027999999999998693","-0.009805000000003616"
"771","0.0","0.0"
"772","0.003331428571429334","-0.0059399999999994535"
"773","0.0038272727272718817","-0.0071745454545457865"
"774","0.006161111111110371","-0.00511333333333318"
"775","0.008024444444442244","-0.007500000000000284"
"776","0.005331999999999937","-0.008965999999998076"
"777","0.00684888888888777","-0.007344444444444302"
"778","0.005053999999998382","-0.008734000000004016"
"779","0.003601111111111758","-0.009980000000001136"
"780","0.0029450000000004195","-0.004857500000003512"
"781","0.002203333333334001","-0.0038416666666674835"
"782","0.007890769230768932","-0.00427307692307612"
"783","0.004692307692309328","-0.005214615384616103"
"784","0.013052894736842248","-0.013123421052631761"
"785","0.010700909090910603","-0.018847272727271047"
"786","0.002195000000000391","-0.00596999999999781"
"787","0.0026149999999987017","-0.004281250000000014"
"788","0.004905500000000273","-0.005781000000000347"
"789","0.006984999999993136","-0.011655000000002858"
"790","0.004531666666672152","-0.0072416666666666645"
"791","0.017400000000009186","-0.04877666666666395"
"792","0.033619999999999095","-0.10607000000000255"
"793","0.004864166666659268","-0.003954999999998303"
"794","0.020822400000001837","-0.006637999999999522"
"795","0.013493999999991502","-0.01406599999999969"
"796","0.010284999999988997","-0.011390000000002232"
"797","1.9000000000346517E-4","-0.0027799999999977842"
"798","0.003631999999998925","-0.0168399999999977"
"799","0.0","0.0"
"800","0.009252499999996444","-0.014503749999999371"
"801","0.005245882352941061","-0.009243529411764605"
"802","0.01596327272727195","-0.01745618181818158"
"803","0.009172258064514991","-0.005587096774193822"
"804","0.011315098039216155","-0.008315294117647407"
"805","0.007418181818181324","-0.007888363636363558"
"806","0.010304852941174931","-0.008542499999999845"
"807","0.013441764705883345","-0.00884323529411734"
"808","0.009315749999998868","-0.006800000000000139"
"809","0.008565483870967915","-0.00781870967741995"
"810","0.007853000000000953","-0.009877999999999786"
"811","0.01112342857142973","-0.01012314285714382"
"812","0.12758138888888926","-0.23096138888888904"
"813","0.004085254237289556","-0.0053364406779660995"
"814","0.007448095238094611","-0.004769999999999592"
"815","0.0048822222222197655","-0.007238888888886821"
"816","0.007612857142856707","-0.007425714285715352"
"817","0.009082857142854348","-0.004292857142855512"
"818","0.007175714285712128","-0.006895714285711563"
"819","0.009324999999993366","-0.005055000000005805"
"820","0.005582500000000934","-0.0075824999999998255"
"821","0.014804999999999069","-0.009524999999996453"
"822","0.0014800000000079194","-0.0076400000000020896"
"823","0.0032700000000005502","-0.003553999999999746"
"824","0.00572499999999998","-0.0019524999999998016"
"825","0.004419999999996094","-0.007125000000002046"
"826","0.011989999999993728","-0.015425000000004019"
"827","0.0","0.0"
"828","0.0030200000000007777","-0.0035420000000016215"
"829","0.0","0.0"
"830","0.007509999999999313","-0.009408333333330058"
"831","0.4554714285714293","-0.3687464285714278"
"832","0.00868000000000535","-0.030715000000004267"
"833","0.00985749999999778","-0.018635833333332148"
"834","0.009136666666665386","-0.01503333333333264"
"835","0.0","0.0"
"836","0.014007499999998174","-0.016060000000004848"
"837","1.0172604166666677","-0.444135833333332"
"838","0.04278833333333646","-0.11101000000000265"
"839","0.0074900000000042155","-0.0060499999999983345"
"840","0.009489999999999554","-0.011903333333331526"
"841","0.9269180000000012","-0.2967519999999997"
"842","0.004608709677417129","-0.007130000000000424"
"843","0.002253333333338029","-0.008793333333332024"
"844","0.0","0.0"
"845","0.004446206896550256","-0.009089310344827609"
"846","0.0","0.0"
"847","0.019062499999996874","-0.03567250000000044"
"848","0.012952307692311106","-0.011391923076922366"
"849","0.009064675324674348","-0.008412857142856965"
"850","0.012845686274510635","-0.010387450980392496"
"851","0.013176739130434286","-0.014370869565217836"
"852","0.00761810344827535","-0.007050000000000169"
"853","0.011042058823530187","-0.007391470588235612"
"854","0.006702380952381615","-0.006360714285714138"
"855","0.012144727272727545","-0.005962363636363803"
"856","0.009384418604651161","-0.010736511627907262"
"857","0.009414062499999543","-0.007864375000000257"
"858","0.008787692307694673","-0.008694230769230525"
"859","0.025441904761904038","-0.02102023809523804"
"860","0.006690810810809851","-0.005857567567569058"
"861","0.00576736842105213","-0.008203684210524455"
"862","0.006882857142857445","-0.006528571428572454"
"863","0.005325294117647124","-0.00695882352941331"
"864","0.0037660000000007206","-0.007318666666666237"
"865","0.002255999999997016","-0.011033999999997945"
"866","0.007569999999997634","-0.009812500000002444"
"867","0.004301666666667832","-0.006630000000001246"
"868","0.0028099999999966485","-0.0056200000000004025"
"869","0.009606000000000847","-0.008231999999996732"
"870","0.006836000000005527","-0.00564600000000155"
"871","0.0","0.0"
"872","0.007829999999991344","-0.006039999999998713"
"873","0.004829999999998336","-0.003746000000001004"
"874","0.00889666666666263","-0.011370000000006542"
"875","0.005564444444444187","-0.01142944444444538"
"876","0.003933333333332456","-0.0048416666666651524"
"877","0.00990923076923003","-0.007788461538460467"
"878","0.010174444444448087","-0.007294444444443037"
"879","0.005558571428569589","-0.007478571428570494"
"880","0.015547777777776951","-0.012708888888891719"
"881","0.013498571428572501","-0.009632857142858395"
"882","0.016439999999999344","-0.011542499999997347"
"883","0.015342499999995596","-0.014032500000002557"
"884","0.0084545454545419","-0.010378181818182952"
"885","0.035273750000003545","-0.07880999999999982"
"886","0.005669999999994957","-0.001310000000003697"
"887","0.0","0.0"
"888","0.018695000000001016","-0.003909999999997638"
"889","0.006204999999997796","-0.010613750000000977"
"890","0.0","0.0"
"891","6.050000000001887E-4","-0.011214999999996422"
"892","0.006359999999996073","-0.026530000000001053"
"893","0.0","0.0"
"894","0.009304999999999897","-0.016045000000001863"
"895","0.015932499999994576","-0.00836375000000178"
"896","0.004032692307694456","-0.010318461538461703"
"897","0.008450365853657785","-0.01639390243902444"
"898","0.011823209876543384","-0.011103580246913804"
"899","0.010289852941176203","-0.011955147058822809"
"900","0.008627027027027228","-0.012396486486487007"
"901","0.005998461538459501","-0.009042307692306158"
"902","0.0064570270270270435","-0.010214864864864054"
"903","0.005730714285714303","-0.005506428571429467"
"904","0.008297096774191161","-0.006716774193548754"
"905","0.011580588235291641","-0.013710588235294599"
"906","0.007897999999999428","-0.010740000000000194"
"907","0.0069427272727274995","-0.009121363636364066"
"908","0.0087212499999992","-0.008264166666667036"
"909","0.01488454545454555","-0.014856363636361246"
"910","0.007138823529410258","-0.00850647058823572"
"911","0.008129499999999013","-0.006782999999999362"
"912","0.0057830769230777105","-0.00777615384615324"
"913","0.007493333333331502","-0.00592333333333291"
"914","0.005658333333332877","-0.006511666666667064"
"915","0.008947999999999467","-0.011174000000001173"
"916","0.00923499999999855","-0.006267500000001647"
"917","0.007427999999998746","-0.006469999999998777"
"918","0.007372499999998894","-0.00835750000000246"
"919","0.0","0.0"
"920","0.009139999999999779","-0.0065766666666651945"
"921","0.007589999999993324","-0.003190000000003579"
"922","0.0031739999999999212","-0.0038679999999999383"
"923","0.0026460000000014363","-0.00467400000000282"
"924","0.007182800000000214","-0.011755600000000185"
"925","0.019697692307695674","-0.014043076923074365"
"926","0.009087142857144468","-0.009190714285714765"
"927","0.009167142857143469","-0.011805714285713975"
"928","0.023104000000000725","-0.014386000000000366"
"929","0.0","0.0"
"930","0.0035499999999970555","-0.004162499999999625"
"931","0.19233000000001255","-0.48174000000000206"
"932","0.007794999999999182","-0.0028883333333323455"
"933","0.004279999999994288","-0.008678000000000453"
"934","0.0035799999999994725","-0.004195000000001059"
"935","0.010504000000001668","-0.006574000000001234"
"936","0.0","0.0"
"937","0.0038633333333374744","-0.01257333333333103"
"938","0.00626000000000155","-0.008262857142857984"
"939","0.0","0.0"
"940","0.0","0.0"
"941","0.036253333333333394","-0.009389999999998603"
"942","0.0","0.0"
"943","0.0063621951219505375","-0.005576341463414176"
"944","0.006667948717948846","-0.012453333333332659"
"945","0.011320384615384631","-0.013931923076922951"
"946","0.014448235294118362","-0.011621176470588194"
"947","0.007574193548388584","-0.01311870967741986"
"948","0.009415555555555954","-0.014758888888888717"
"949","0.0024950000000032446","-0.0028024999999978206"
"950","0.018911000000002075","-0.00961899999999929"
"951","0.013133571428570079","-0.008442142857142747"
"952","0.0077857894736833985","-0.006567368421051948"
"953","0.007398666666667234","-0.008382000000001237"
"954","0.008018000000001635","-0.003938000000000131"
"955","0.008462500000002038","-0.0052699999999976654"
"956","0.004883999999999844","-0.005113999999997532"
"957","0.006206249999999969","-0.005543750000001957"
"958","0.009180714285713114","-0.005872142857143611"
"959","0.007937500000000153","-0.008458749999998183"
"960","0.011555000000002202","-0.005562499999998138"
"961","0.004784999999998263","-0.011959999999998416"
"962","0.0067816666666663155","-0.0033933333333327673"
"963","0.01319333333333598","-0.0039700000000024716"
"964","0.009613333333336508","-0.0033399999999990846"
"965","0.0042679999999975845","-0.0029140000000012376"
"966","0.006930000000001257","-0.005120000000000857"
"967","0.007102500000000234","-0.006117500000001996"
"968","0.01353499999999741","-0.007014999999999105"
"969","0.001069999999998572","-4.500000000007276E-4"
"970","0.007270000000005439","-0.004419999999996094"
"971","0.006330000000005498","-0.005020000000008906"
"972","0.0023600000000243426","-0.02232999999999663"
"973","0.005714210526315804","-0.006940000000000168"
"974","0.010409655172413691","-0.01025827586206859"
"975","0.00913916666666618","-0.008155833333332177"
"976","0.03801666666666866","-0.0280800000000004"
"977","0.013099999999997496","-0.009878888888888722"
"978","0.04455499999999901","-0.1095060000000018"
"979","0.010220000000003893","-0.011924999999997965"
"980","0.005219999999994229","-0.005701428571427414"
"981","0.02013400000000066","-0.006347333333334385"
"982","0.009559999999998089","-0.007174444444445606"
"983","0.011084285714291906","-0.005048571428569103"
"984","0.004766666666668584","-0.011260000000000837"
"985","0.00473700000000008","-0.007460999999999274"
"986","0.01237166666666667","-0.019230000000002672"
"987","0.0","0.0"
"988","0.025337499999999902","-0.0144675000000003"
"989","0.0","0.0"
"990","0.006875999999998328","-0.008991999999997802"
"991","0.004434000000000537","-0.010865999999998622"
"992","0.012759230769229536","-0.019880384615385847"
"993","0.007526590909089622","-0.012210454545453815"
"994","0.006819142857142323","-0.008433999999999945"
"995","0.0117271428571418","-0.017522857142858294"
"996","0.011159473684211762","-0.017225263157896326"
"997","0.021056666666664725","-0.012552222222221902"
"998","0.007363333333337607","-0.00529666666667102"
"999","0.0030725000000000335","-0.007130000000001857"
"1000","0.008337499999996112","-0.00492000000000381"
"1001","0.0037025000000037167","-0.004652499999998838"
"1002","0.005878888888889754","-0.007782222222222875"
"1003","0.0","0.0"
"1004","0.007938888888887163","-0.005145555555556156"
"1005","0.008136666666667717","-0.0055099999999994355"
"1006","0.00896250000000176","-0.007332500000001296"
"1007","0.01056666666666691","-0.004984444444445223"
"1008","0.008901333333331726","-0.008758666666667143"
"1009","0.012512499999998816","-0.014179999999999637"
"1010","0.004079999999999829","-0.006017142857140405"
"1011","0.00541199999999975","-0.008504000000002065"
"1012","0.00668500000000094","-0.018159999999994625"
"1013","0.0","0.0"
"1014","0.005819999999997568","-0.011639999999997505"
"1015","0.007783333333333549","-0.004559999999997899"
"1016","0.005740000000002965","-0.004316666666667857"
"1017","0.006421666666668102","-0.0031799999999980364"
"1018","0.0024433333333367577","-0.004390000000000782"
"1019","0.01155500000000842","-0.004925000000000068"
"1020","0.006347894736845804","-0.008575789473683409"
"1021","0.007787222222222883","-0.008520000000000354"
"1022","0.006928000000000623","-0.004683999999998889"
"1023","0.006653913043479065","-0.00956521739130399"
"1024","0.028064166666666186","-0.05762166666666483"
"1025","0.01704428571428553","-0.029740000000001845"
"1026","0.010624999999997442","-0.004540000000002209"
"1027","0.0","0.0"
"1028","0.011441578947367392","-0.012208947368419768"
"1029","0.005980000000001774","-0.010874444444444483"
"1030","0.008307999999998117","-0.011242999999998204"
"1031","0.002158571428566347","-0.010920000000000738"
"1032","0.021160399999999982","-0.01649519999999967"
"1033","0.001153999999993971","-0.006129999999997438"
"1034","0.0","0.0"
"1035","0.013823333333333151","-0.006870000000001634"
"1036","0.02595500000000006","-0.021142499999999842"
"1037","0.0","0.0"
"1038","0.0","0.0"
"1039","0.025971250000000445","-0.015051250000000849"
"1040","0.010780357142857458","-0.014388571428570529"
"1041","0.006650000000000079","-0.010210000000000172"
"1042","0.010177500000000617","-0.008402916666666075"
"1043","0.007920999999998202","-0.007500000000000995"
"1044","0.012393333333334589","-0.018274999999999746"
"1045","0.019712000000001596","-0.01486799999999917"
"1046","0.008449999999996294","-0.00501249999999942"
"1047","0.0032233333333332817","-0.005596666666665584"
"1048","0.0035149999999983805","-0.008509999999997575"
"1049","0.0070175000000034515","-0.0058699999999980434"
"1050","0.008709999999993556","-0.0014599999999944657"
"1051","0.008389999999998565","-0.00837000000000169"
"1052","0.00336499999999873","-0.0017750000000020805"
"1053","0.00482200000000006","-0.009457999999999345"
"1054","0.007070000000001168","-0.004883333333332018"
"1055","0.011901000000001005","-0.007923000000000967"
"1056","0.012402857142855541","-0.006914285714287871"
"1057","0.011515000000002829","-0.008795000000002773"
"1058","0.011972857142857103","-0.012388571428572399"
"1059","0.009066666666666853","-0.0043033333333326595"
"1060","0.006757499999999084","-0.0035050000000005355"
"1061","0.0012166666666644232","-0.0033366666666670617"
"1062","0.002935000000000798","-0.008954999999993163"
"1063","5.100000000055616E-4","-0.0050900000000027035"
"1064","0.0037850000000005934","-0.004612499999998576"
"1065","0.02693999999999619","-0.009259999999990498"
"1066","0.005846666666667962","-0.007711666666669004"
"1067","0.006247500000007733","-0.00672999999999746"
"1068","0.008707199999994373","-0.006669999999999732"
"1069","0.005895294117645816","-0.006438235294117376"
"1070","0.005081428571429569","-0.00706666666666813"
"1071","0.010012181818180982","-0.01830963636363611"
"1072","0.009739047619047727","-0.010554285714285749"
"1073","0.0034549999999976913","-0.006801666666666743"
"1074","0.0102545454545461","-0.014476363636363359"
"1075","0.008655294117646657","-0.0075488235294116635"
"1076","0.0022900000000068608","-0.007986666666665107"
"1077","0.007420000000000128","-0.008106896551724233"
"1078","0.33315360000000055","-0.11691319999999933"
"1079","5.150000000142541E-4","-0.009375000000002132"
"1080","0.0","0.0"
"1081","0.0","0.0"
"1082","0.0","0.0"
"1083","0.024320000000000046","-0.019503333333330392"
"1084","0.02076999999999991","-0.021272000000001866"
"1085","0.02011333333333365","-0.02911333333333251"
"1086","0.008255000000000123","-0.017847500000000238"
"1087","0.008353846153846498","-0.012945384615385627"
"1088","0.0055490909090901205","-0.010040909090909106"
"1089","0.006032380952380038","-0.008361428571429233"
"1090","0.007351111111110716","-0.008679999999999823"
"1091","0.0","0.0"
"1092","0.0","0.0"
"1093","0.0","0.0"
"1094","0.0","0.0"
"1095","0.0","0.0"
"1096","0.0","0.0"
"1097","0.0","0.0"
"1098","0.006610000000009109","-0.003020000000006462"
"1099","0.005195000000000505","-0.0024550000000012062"
"1100","0.005056000000000438","-0.00644800000000032"
"1101","0.01751250000000404","-0.00633249999999741"
"1102","0.0020799999999923102","-0.004959999999996967"
"1103","0.0036249999999995453","-0.00717249999999936"
"1104","0.01044000000000267","-0.001069999999998572"
"1105","0.005993333333336182","-0.0019966666666656843"
"1106","0.020123333333332976","-0.006129999999998859"
"1107","0.008087499999998471","-0.009149166666666986"
"1108","0.007863750000001168","-0.0050637499999997004"
"1109","0.006874999999998484","-0.011749999999999261"
"1110","0.008761428571429317","-0.0069185714285719"
"1111","0.009800000000001521","-0.008417142857142932"
"1112","0.008098333333330507","-0.010470000000002718"
"1113","0.005023333333331455","-0.009421111111110115"
"1114","0.00531181818181701","-0.010420909090908285"
"1115","0.004430625000002131","-0.006625000000001435"
"1116","0.0051354999999986715","-0.009537499999999356"
"1117","0.006541999999998893","-0.013228000000001572"
"1118","0.003749189189190898","-0.005543378378378273"
"1119","0.007978000000005637","-0.005649333333332151"
"1120","0.012848666666666968","-0.011047666666667056"
"1121","0.008532553191489788","-0.00941510638297945"
"1122","0.005418235294116284","-0.006688235294115643"
"1123","0.004232000000002737","-0.00925800000000218"
"1124","0.005594074074074054","-0.005156913580246557"
"1125","0.004140779220779333","-0.005056493506493511"
"1126","0.007114411764704986","-0.010310294117646383"
"1127","0.009042857142857892","-0.009777857142856712"
"1128","0.0","0.0"
"1129","0.0","0.0"
"1130","0.0","0.0"
"1131","0.0","0.0"
"1132","0.0","0.0"
"1133","0.0","0.0"
"1134","0.0","0.0"
"1135","0.013664285714286097","-0.01171571428571383"
"1136","0.008108421052632203","-0.01304710526315732"
"1137","0.010230000000001484","-0.008442857142858275"
"1138","0.011112499999999415","-0.006637500000000074"
"1139","0.012240000000002027","-1.8500000000543082E-4"
"1140","0.0026966666666652372","-0.009280000000001584"
"1141","0.00930999999999571","-0.007429999999992276"
"1142","0.009924999999999073","-0.005490000000001771"
"1143","0.00952999999999804","-2.599999999972624E-4"
"1144","0.003930000000003986","-0.002420000000000755"
"1145","0.0017199999999917281","-0.0015199999999921943"
"1146","0.0","0.0"
"1147","0.0","0.0"
"1148","0.0","0.0"
"1149","0.0","0.0"
"1150","0.0","0.0"
"1151","0.0","0.0"
"1152","0.0","0.0"
"1153","0.0","0.0"
"1154","0.0","0.0"
"1155","0.0","0.0"
"1156","0.0226600000000019","-0.012160000000008608"
"1157","0.0","0.0"
"1158","0.0","0.0"
"1159","0.017910000000000537","-0.0063299999999983925"
"1160","0.0","0.0"
"1161","0.0010800000000017462","-0.015579999999999927"
"1162","0.008749999999999147","-0.006220000000002557"
"1163","0.0029466666666640626","-0.008680000000002982"
"1164","0.006363333333325727","-0.006516666666662729"
"1165","0.003948888888887028","-0.009205555555554036"
"1166","0.004243333333330194","-0.025306666666665478"
"1167","0.013708999999998639","-0.010759999999999792"
"1168","0.006416666666664146","-0.006709999999998217"
"1169","0.001484999999997072","-0.003088750000001639"
"1170","0.006350454545452971","-0.003204545454544284"
"1171","0.004729207920791698","-0.0037962871287132135"
"1172","0.004156031746031122","-0.004965714285713856"
"1173","0.005111219512195723","-0.004367804878048756"
"1174","0.006380000000021369","-0.001100000000000989"
