"cell_id","acc_x","acc_y"
"0","0.0","0.0"
"1","0.0","0.0"
"2","-0.002409999999999357","0.005040624999999979"
"3","-0.0029516666666688073","0.0021177777777777987"
"4","-0.005696250000001513","0.005426249999999994"
"5","0.0","0.0"
"6","-0.008631875000001621","0.00737312499999998"
"7","-0.007583333333334015","0.022250000000000103"
"8","-0.0016599999999868942","0.0032599999999993745"
"9","-0.02064749999999904","0.02121500000000004"
"10","-0.013328571428569294","0.013250000000000015"
"11","-0.03711500000000001","0.08055499999999999"
"12","-0.022875999999999407","0.021229999999999926"
"13","0.0","0.0"
"14","0.0","0.0"
"15","0.0","0.0"
"16","0.0","0.0"
"17","0.0","0.0"
"18","0.0","0.0"
"19","0.0","0.0"
"20","0.0","0.0"
"21","0.0","0.0"
"22","-0.0035575000000021006","0.007134999999999987"
"23","-0.007335000000002978","0.0015049999999999786"
"24","-0.005647142857143754","0.003218571428571428"
"25","0.0","0.0"
"26","0.0","0.0"
"27","0.0","0.0"
"28","0.0","0.0"
"29","0.0","0.0"
"30","0.0","0.0"
"31","0.0","0.0"
"32","-0.047768285714286256","0.028611714285714258"
"33","-0.029246666666665533","0.028799999999999992"
"34","0.0","0.0"
"35","0.0","0.0"
"36","0.0","0.0"
"37","0.0","0.0"
"38","0.0","0.0"
"39","0.0","0.0"
"40","0.0","0.0"
"41","0.0","0.0"
"42","0.0","0.0"
"43","0.0","0.0"
"44","0.0","0.0"
"45","0.0","0.0"
"46","0.0","0.0"
"47","0.0","0.0"
"48","0.0","0.0"
"49","-0.0045600000000050045","0.008525000000000116"
"50","0.0","0.0"
"51","-0.008380000000002497","0.007980000000000098"
"52","0.0","0.0"
"53","-0.006230769230768374","0.008121538461538461"
"54","-0.006156666666664516","0.01677666666666659"
"55","-0.012073333333338118","0.018719999999999775"
"56","-0.014584999999999107","0.016150833333333264"
"57","-0.00966842105263055","0.010807894736842114"
"58","-0.015540333333334051","0.02263466666666673"
"59","-0.008603200000000158","0.0091720000000001"
"60","-0.014584999999999581","0.024316000000000094"
"61","-0.022475000000000616","0.03452499999999977"
"62","-0.008728181818181791","0.022761818181818164"
"63","0.0","0.0"
"64","0.0","0.0"
"65","0.0","0.0"
"66","-0.0029599999999980753","0.0070224999999997095"
"67","-0.006877500000000462","0.010808333333333309"
"68","-0.007284000000000646","0.006404000000000054"
"69","-0.00843500000000219","0.003674999999999873"
"70","-3.9999999991380264E-5","0.018120000000000136"
"71","0.0","0.0"
"72","0.0","0.0"
"73","-0.002739999999995746","0.025140000000000384"
"74","-0.03622000000000014","5.80000000000247E-4"
"75","-0.006004999999994709","0.03249499999999994"
"76","-0.0038100000000014234","0.01971000000000034"
"77","-0.015180000000004412","0.00900999999999974"
"78","-0.002507499999996554","0.0039125000000000965"
"79","-0.00283999999999196","6.499999999998174E-4"
"80","0.0","0.0"
"81","-0.003950000000003229","3.60000000000138E-4"
"82","0.0","0.0"
"83","-0.4648699999999996","0.16862363636363628"
"84","-0.02153666666666254","0.01647333333333349"
"85","-0.01076333333332021","0.005480000000000078"
"86","0.0","0.0"
"87","0.0","0.0"
"88","0.0","0.0"
"89","0.0","0.0"
"90","0.0","0.0"
"91","0.0","0.0"
"92","0.0","0.0"
"93","0.0","0.0"
"94","0.0","0.0"
"95","0.0","0.0"
"96","0.0","0.0"
"97","0.0","0.0"
"98","-0.013329999999989184","0.04340999999999973"
"99","-0.02604499999999277","0.04885750000000022"
"100","-0.0014533333333351568","0.00711666666666666"
"101","-0.010411999999990939","0.01066199999999995"
"102","-0.004096666666671449","0.009533333333333319"
"103","-0.007367777777774778","0.009078888888889105"
"104","-0.012285454545456143","0.01700909090909063"
"105","-0.008952564102562413","0.011264871794871761"
"106","-0.016847297297295817","0.020945135135135295"
"107","-0.011745952380951288","0.015524047619047623"
"108","-0.0145004761904763","0.011931190476190448"
"109","-0.013989374999999638","0.009324374999999968"
"110","-0.012279999999999328","0.011070555555555521"
"111","-0.012390833333334092","0.016979166666666545"
"112","-0.010501428571427393","0.0073114285714288895"
"113","-0.02170333333333474","0.02346000000000063"
"114","-0.013796666666668974","0.019280000000000186"
"115","-0.007598333333335224","0.012408333333333355"
"116","-0.0032899999999926877","0.005340000000001233"
"117","0.0","0.0"
"118","-0.01615999999999218","0.0014199999999995327"
"119","-0.00464333333333163","0.002013333333332904"
"120","-0.008885000000002918","0.0024100000000002453"
"121","-0.006390000000003226","0.008680000000000021"
"122","-0.0029600000000039963","0.0042333333333332375"
"123","-0.004239999999995803","0.00462999999999969"
"124","-0.0038450000000006903","0.004766666666666808"
"125","-0.006166363636366932","0.010150000000000325"
"126","0.0","0.0"
"127","-0.012384285714286338","0.008095714285714348"
"128","-0.01598821428571538","0.01167035714285704"
"129","-0.004129999999999967","0.011961250000000034"
"130","-0.010385000000002264","0.008056000000000018"
"131","0.0","0.0"
"132","-0.0014000000000038426","0.011730000000000018"
"133","-0.013303333333335369","0.007731666666666766"
"134","0.0","0.0"
"135","0.0","0.0"
"136","0.0","0.0"
"137","0.0","0.0"
"138","0.0","0.0"
"139","0.0","0.0"
"140","0.0","0.0"
"141","0.0","0.0"
"142","0.0","0.0"
"143","0.0","0.0"
"144","0.0","0.0"
"145","0.0","0.0"
"146","0.0","0.0"
"147","-0.02049666666666698","0.05216666666666647"
"148","-0.017895714285717648","0.023952857142857553"
"149","-0.006419999999999722","0.03274000000000014"
"150","-0.003140000000001919","0.003930000000000433"
"151","-0.030085000000003248","0.028862499999999902"
"152","-0.012164999999998871","0.011187500000000017"
"153","-0.011716666666667189","0.013134999999999527"
"154","-0.022203333333332152","0.021487333333333445"
"155","-0.010433529411765322","0.018614117647058982"
"156","-0.013170312499999781","0.009514375000000047"
"157","-0.01724799999999931","0.014081999999999973"
"158","-0.014907500000001406","0.016542500000000127"
"159","-0.01157875000000086","0.010475000000000012"
"160","-0.015395714285714084","0.011732142857143048"
"161","-0.008725217391303662","0.007223913043478146"
"162","-0.005707777777776041","0.00648666666666653"
"163","-0.003223999999997318","0.013644000000000212"
"164","-3.499999999903025E-4","0.003530000000000477"
"165","-0.00721000000000771","0.004830000000000112"
"166","-0.0027600000000091995","0.0032600000000000406"
"167","-0.0023100000000013665","0.016065000000000218"
"168","-0.006374999999998465","0.013314999999999966"
"169","0.0","0.0"
"170","-0.025530000000003383","0.004655000000000076"
"171","-0.008762499999997786","0.00725250000000055"
"172","-0.003958000000001505","0.006193200000000161"
"173","-0.010586923076918818","0.013026923076922983"
"174","-0.010521428571426636","0.012211428571429015"
"175","-0.007225000000002321","0.00942285714285702"
"176","-0.007394814814814608","0.011124814814814914"
"177","-0.010887777777778891","0.012442222222222514"
"178","-0.0071974999999984135","0.007531249999999767"
"179","-0.011767777777772418","0.007239444444444231"
"180","-0.01176666666667043","0.033105555555555576"
"181","-0.4208096874999985","0.38512437499999996"
"182","-0.006685384615385951","0.009378461538461216"
"183","-0.00758499999999529","0.022042500000000076"
"184","-0.017126000000000374","0.018047999999999932"
"185","-0.012912500000000549","0.009894999999999987"
"186","0.0","0.0"
"187","0.0","0.0"
"188","0.0","0.0"
"189","0.0","0.0"
"190","0.0","0.0"
"191","-0.03628999999999927","0.06412000000000084"
"192","-0.003113333333332413","0.0206833333333325"
"193","-0.002189999999998804","0.00868000000000091"
"194","-0.014750000000001151","0.23766000000000087"
"195","0.0","0.0"
"196","-0.006487999999997385","0.009672000000000125"
"197","-0.007345714285713305","0.007672857142857227"
"198","-0.014930909090913567","0.0189054545454547"
"199","-0.007617142857144036","0.007947142857143217"
"200","-0.018509999999997615","0.02691428571428554"
"201","-0.017269500000002935","0.014738500000000033"
"202","-0.010096363636362843","0.014801818181818582"
"203","-0.020555555555555414","0.01647333333333339"
"204","-0.009533437499999353","0.012064687499999949"
"205","-0.026368999999996846","0.03615699999999933"
"206","-0.00444500000000166","0.007578333333333909"
"207","-0.011454545454544919","0.009790454545454836"
"208","-0.004347500000000615","0.007154999999999578"
"209","-0.003247499999996961","0.011045000000000194"
"210","-0.00702833333333075","0.007241666666665776"
"211","-0.006134999999999262","0.006991666666666656"
"212","-0.007103333333333239","0.02212666666666685"
"213","-0.005648333333332071","0.005520000000000043"
"214","-0.0024866666666648976","0.007786666666667348"
"215","-0.0060149999999996595","0.007694999999999119"
"216","-0.5969333333333348","0.38296333333333354"
"217","-0.00489000000000317","0.008536666666666784"
"218","-0.01410249999999813","0.015440000000000786"
"219","-0.010543333333333274","0.007031666666667065"
"220","-0.00370999999999988","0.0028774999999996442"
"221","-0.004367999999999483","0.0035160000000004745"
"222","-0.00654190476190376","0.0061128571428568194"
"223","-0.008745846153846935","0.007530307692307745"
"224","-0.008147419354838436","0.009970645161290419"
"225","-0.005800624999998227","0.015513124999999905"
"226","-0.008024999999999238","0.02646199999999972"
"227","-0.007457000000000847","0.0075649999999999554"
"228","-0.009795666666664241","0.00969766666666662"
"229","-0.009300000000002648","0.027682307692307482"
"230","-0.011298181818183005","0.010101818181817667"
"231","-0.017829999999989354","0.0024399999999999977"
"232","-0.007726249999999268","0.00603750000000014"
"233","-0.0022199999999941156","0.009219999999999118"
"234","0.0","0.0"
"235","0.0","0.0"
"236","0.0","0.0"
"237","-0.02875999999999923","0.06386999999999965"
"238","0.0","0.0"
"239","-0.12486000000000175","0.06074999999999875"
"240","-0.022469999999998436","0.002099999999996882"
"241","-0.007057500000000605","0.010495000000000587"
"242","-0.02666999999999516","0.016730000000001393"
"243","-0.037383333333323776","0.02817666666666696"
"244","-0.022642499999996346","0.025537499999999547"
"245","-0.02375000000000682","0.009386666666667173"
"246","-0.025232499999999547","0.026467499999999644"
"247","-0.009770909090909961","0.009454545454545705"
"248","-0.007283157894735892","0.008332894736841756"
"249","-0.012451764705881796","0.012777352941176753"
"250","-0.005861818181820088","0.00996636363636292"
"251","-0.010989545454546536","0.013796818181817872"
"252","-0.012006486486486312","0.013251891891891906"
"253","-0.009862173913043771","0.006250434782608788"
"254","-0.015676249999998504","0.01994125000000002"
"255","-0.009730000000002903","0.014057499999999834"
"256","-0.015377999999998337","0.018721999999999284"
"257","-0.008763333333331976","0.004069999999999278"
"258","-0.011792857142857827","0.019327142857143036"
"259","-0.012640000000001095","0.03382999999999914"
"260","0.0","0.0"
"261","-0.00640666666666571","0.015461666666666929"
"262","-0.014669999999995298","0.011459999999999582"
"263","-0.011734000000001289","0.004700000000000415"
"264","-0.013389999999996386","0.00445333333333231"
"265","-0.0058800000000024015","0.018536666666666573"
"266","-0.004220000000010771","0.008610000000002671"
"267","-0.0039021428571435835","0.006914999999999719"
"268","-0.6091018181818152","0.6256751515151516"
"269","-0.009985172413792043","0.008252413793103241"
"270","-0.010139024390244274","0.008775365853658717"
"271","-0.00803875000000076","0.00897416666666658"
"272","-0.009252564102564084","0.01368692307692307"
"273","-0.008120588235294523","0.012221764705882458"
"274","-0.016693076923075978","0.018195384615384665"
"275","-0.01108959183673387","0.01571877551020412"
"276","-0.010479642857143392","0.011978571428571425"
"277","-0.014906666666666032","0.007936666666666406"
"278","-0.007038333333332345","0.00889444444444503"
"279","0.0","0.0"
"280","-0.00607875000000746","0.009432499999999955"
"281","0.0","0.0"
"282","0.0","0.0"
"283","0.0","0.0"
"284","-2.3999999999979593E-4","0.07051000000000052"
"285","0.0","0.0"
"286","-0.007565000000006705","0.027495000000000935"
"287","0.0","0.0"
"288","-0.16667499999999835","0.051480000000001525"
"289","-0.025639999999995666","0.007010000000001071"
"290","-0.026579999999995607","0.0380900000000004"
"291","-0.01691000000000642","0.016049999999999898"
"292","-0.013294999999998947","0.014833125000000003"
"293","-0.014010000000000153","0.02366666666666717"
"294","-0.018103076923076982","0.032519230769230814"
"295","-0.035251428571432895","0.04392571428571479"
"296","-0.017902413793103047","0.020139655172413652"
"297","-0.021383793103447894","0.010410344827586017"
"298","-0.015143333333332818","0.010210555555555464"
"299","-0.011392631578948004","0.01786210526315791"
"300","-0.018629166666666325","0.022840833333333126"
"301","-0.014246363636361408","0.009531818181818252"
"302","-0.009680000000000355","0.012006249999999996"
"303","-0.006495000000001028","0.00538999999999934"
"304","-0.009889999999998622","0.00908999999999871"
"305","-0.01731399999999752","0.006795999999999936"
"306","-0.006900000000000262","0.00632399999999862"
"307","-0.0034500000000032096","0.009533333333333616"
"308","-0.005467499999996406","0.012950000000000683"
"309","-0.006668333333332536","0.01474666666666676"
"310","-0.003708749999998595","0.008097499999999869"
"311","-0.008556666666666027","0.01125333333333245"
"312","-0.008285000000000764","0.012991249999999788"
"313","-0.00996833333333432","0.009993333333333274"
"314","-0.007489117647059833","0.007277058823529568"
"315","-0.01049639999999954","0.012849999999999894"
"316","-0.008640666666666637","0.009434000000000017"
"317","-0.012536666666668967","0.012680952380952095"
"318","-0.010789090909089406","0.008696818181818212"
"319","-0.011899411764707846","0.011909411764706005"
"320","-0.011587241379310132","0.016024482758620572"
"321","-0.010113666666668072","0.010340999999999963"
"322","-0.010189347826086681","0.012143260869565192"
"323","-0.008449999999998537","0.008444736842105028"
"324","-0.00742529411764829","0.00850500000000001"
"325","-0.005648695652174465","0.008928260869564953"
"326","-0.007597333333332775","0.013716666666666792"
"327","-0.009800000000005582","0.01036249999999983"
"328","0.0","0.0"
"329","0.0","0.0"
"330","0.0","0.0"
"331","0.0","0.0"
"332","-0.03110000000000257","0.05520000000000014"
"333","-0.020965454545453257","0.038664545454545424"
"334","0.0","0.0"
"335","-0.025600000000000733","0.05959000000000003"
"336","-0.08540999999999777","0.01628000000000185"
"337","0.0","0.0"
"338","-0.01578999999999553","0.019636666666666375"
"339","-0.044342500000001284","0.05463624999999972"
"340","-0.0024100000000117916","0.29008000000000056"
"341","-0.01894000000000003","0.027251666666666157"
"342","-0.011741428571426635","0.021487142857142722"
"343","-0.011514285714287047","0.012774999999999917"
"344","-0.009273684210525832","0.017701578947368526"
"345","-0.01041958333333263","0.015079999999999908"
"346","-0.01689599999999961","0.020272333333333493"
"347","-0.008109333333332813","0.004976000000000387"
"348","-0.018006666666667098","0.011809166666666648"
"349","-0.005833333333337502","0.011429999999999533"
"350","-0.009896666666668984","0.007495555555555416"
"351","-0.004834666666667431","0.00644600000000004"
"352","-0.007550000000000272","0.006237058823529338"
"353","-0.0025280000000009297","0.003966000000000492"
"354","-0.003922000000002868","0.006136000000000763"
"355","-0.0030450000000001864","0.004325000000000578"
"356","-0.011395999999999162","0.006469999999999842"
"357","-0.01217428571428363","0.006858571428571635"
"358","-0.008989000000000403","0.007231000000000165"
"359","-0.017233636363637315","0.014756363636364062"
"360","-0.0033683333333378584","0.008391666666666945"
"361","-0.014635636363636515","0.01716018181818177"
"362","-0.003834000000000515","0.011612000000000577"
"363","-0.009986874999998285","0.008890624999999708"
"364","-0.009140370370372108","0.011034444444444347"
"365","-0.013159000000000276","0.009353333333333562"
"366","-0.012085000000000198","0.00934374999999991"
"367","-0.014332631578946277","0.016425789473684466"
"368","-0.008627307692308342","0.00996076923076934"
"369","-0.011804285714285288","0.012641190476190384"
"370","-0.010464285714285941","0.01469333333333316"
"371","-0.008415999999998291","0.01749366666666668"
"372","-0.010987058823526","0.011022352941176738"
"373","-0.00889749999999978","0.0041399999999995885"
"374","-0.009404444444443685","0.008405555555554913"
"375","0.0","0.0"
"376","0.0","0.0"
"377","0.0","0.0"
"378","-0.07155000000000022","0.044299999999999784"
"379","0.0","0.0"
"380","0.0","0.0"
"381","0.0","0.0"
"382","0.0","0.0"
"383","0.0","0.0"
"384","-0.16487999999999658","0.3381499999999953"
"385","-0.015460000000002694","0.0216700000000003"
"386","-0.013989999999996172","0.021094999999998088"
"387","-0.01026999999999608","0.03452333333333257"
"388","-0.0071649999999978675","0.014834999999997933"
"389","-0.013987777777779166","0.017545555555556074"
"390","-0.010458095238096038","0.013043809523810134"
"391","-0.009709310344828026","0.010331034482758862"
"392","-0.009525468750000432","0.011281406249999792"
"393","-0.006887499999999824","0.008591249999999717"
"394","-0.005878235294117469","0.01272558823529354"
"395","-0.028256666666665826","0.016251333333333427"
"396","-0.006530500000000572","0.008372499999999939"
"397","-0.0071023529411763445","0.008928235294118196"
"398","-0.006639999999998262","0.007895333333333336"
"399","-0.011370000000001804","0.02308999999999924"
"400","0.0","0.0"
"401","-0.004872222222221328","0.008312222222221758"
"402","-0.006706000000001921","0.006602999999999959"
"403","-0.005092857142856693","0.005734285714286104"
"404","-0.008699999999998908","0.006674000000001001"
"405","-0.01626124999999856","0.015026250000000463"
"406","-0.011486666666667608","0.022495833333333753"
"407","-0.005488809523809564","0.008084999999999962"
"408","-0.17014914285714228","0.19094428571428584"
"409","-0.006706666666668563","0.011368888888889551"
"410","-0.008068695652177073","0.012107826086956293"
"411","-0.01157399999999503","0.011616666666666357"
"412","-0.00788000000000153","0.00665899999999926"
"413","-0.007775238095238787","0.006626666666666432"
"414","-0.013707812500000305","0.013004062500000024"
"415","-0.020840000000000122","0.014561578947368758"
"416","-0.02604961538461809","0.01315384615384597"
"417","-0.012629444444444951","0.013140833333333725"
"418","-0.010364146341463843","0.006734634146341781"
"419","-0.006340285714285138","0.007209714285714292"
"420","-0.009437777777778125","0.007776666666666345"
"421","-0.009580000000006805","0.012388749999999948"
"422","-1.0817171428571402","0.2153800000000012"
"423","0.0","0.0"
"424","-0.04855000000000009","0.04230000000000089"
"425","-0.044645000000009816","0.06245499999999815"
"426","-0.02509500000000031","0.0064750000000000085"
"427","-0.036862222222222525","0.03386999999999989"
"428","-0.014463999999999899","0.04241799999999998"
"429","0.0","0.0"
"430","-0.04983666666666705","0.03477333333333456"
"431","0.0","0.0"
"432","0.0","0.0"
"433","-0.00858499999999296","0.005400000000001626"
"434","-0.05164800000000227","0.06551000000000044"
"435","-0.013148333333331172","0.01109166666666835"
"436","-0.04024999999999892","0.061083999999997474"
"437","-0.027689090909090067","0.009759090909089966"
"438","-0.03890428571428422","0.012055714285714154"
"439","-0.009708593750000438","0.009641406249999873"
"440","-0.005576923076924017","0.012157307692308205"
"441","-0.009908571428570363","0.011939642857142678"
"442","-0.0051187499999985064","0.004701250000000545"
"443","-0.004667857142858318","0.00866000000000027"
"444","-0.004447500000002158","0.01167999999999969"
"445","-0.013235000000000647","0.01136214285714259"
"446","-0.008173225806451509","0.010205806451613437"
"447","-0.011412631578947247","0.01679947368420991"
"448","-0.008292500000001368","0.014498750000000449"
"449","-0.007255000000000678","0.010897999999999897"
"450","-0.008259999999997904","0.008007142857144243"
"451","-0.013847058823529323","0.01606941176470588"
"452","-0.015865454545453354","0.012440000000000269"
"453","-0.008331428571428847","0.009905714285713836"
"454","-0.009576153846152872","0.013126153846154573"
"455","-0.004851600000001781","0.0037551999999998033"
"456","-0.005807142857143788","0.011477857142856556"
"457","-0.009513999999998645","0.010014000000000085"
"458","-0.006478461538462783","0.005990769230768988"
"459","-0.007017916666666106","0.005421666666666436"
"460","-0.007255000000003836","0.004528333333333221"
"461","-0.017227894736843035","0.011495789473683186"
"462","-0.018058571428571417","0.018033928571428097"
"463","-0.018578823529408924","0.011125294117647818"
"464","-0.027014200000000984","0.017013000000000177"
"465","-0.01646111111111242","0.024273333333333074"
"466","-0.011241818181820856","0.014281818181818163"
"467","-0.0022675000000091927","0.013039999999998386"
"468","-0.0049479999999931575","0.003269999999999129"
"469","0.0","0.0"
"470","0.0","0.0"
"471","-0.09766500000000022","0.1367049999999992"
"472","-0.06722000000000383","0.02344499999999705"
"473","-0.023180000000000756","0.040782500000000166"
"474","-0.02965285714285645","0.049484285714284634"
"475","-0.058390000000000754","0.06706666666666727"
"476","0.0","0.0"
"477","-0.0657449999999969","0.03577499999999952"
"478","-0.03062588235294119","0.02213176470588189"
"479","-0.016239999999998034","0.025980000000002335"
"480","-0.08791500000000241","0.11368500000000026"
"481","-0.11832500000000046","0.07787999999999862"
"482","-0.00487799999999936","0.0038039999999988083"
"483","0.0","0.0"
"484","-0.027843999999999626","0.008379999999999655"
"485","-0.02657333333333322","0.023309333333333862"
"486","-0.013862272727272846","0.01326727272727244"
"487","-0.010859302325581823","0.011776279069767194"
"488","-0.008655517241378849","0.016201724137930702"
"489","-0.019692592592594725","0.01630185185185182"
"490","-0.007676923076922675","0.007931538461539352"
"491","-0.010224999999999389","0.00857285714285716"
"492","-0.008858235294117294","0.01655352941176435"
"493","-0.012537999999997851","0.02178699999999978"
"494","-0.006325000000001246","0.013389999999999791"
"495","-0.013815999999998496","0.009246000000000264"
"496","-0.008997777777778597","0.00811611111111215"
"497","-0.007966470588237354","0.009434705882353126"
"498","-0.007105000000000583","0.009031874999999356"
"499","-0.012453750000001781","0.021720416666666093"
"500","-0.013065882352941822","0.01647352941176529"
"501","-0.004080526315789257","0.0037294736842105104"
"502","0.0","0.0"
"503","-0.0066646153846134076","0.007336923076923523"
"504","-0.010630869565218241","0.012928695652173656"
"505","-0.03002866666666648","0.0909506666666663"
"506","-0.027089285714284424","0.21392657142857138"
"507","-0.008562631578946878","0.008800526315789887"
"508","-0.007701000000002267","0.009159999999998902"
"509","-0.013353913043480287","0.0242773913043475"
"510","-0.018070689655173482","0.01251862068965535"
"511","-0.017959393939395083","0.01960121212121172"
"512","-0.029752580645161366","0.020539677419355182"
"513","-0.015466874999998659","0.013975624999999603"
"514","-0.02683812499999938","0.02094749999999901"
"515","-0.007714285714283976","0.006007142857143829"
"516","0.0","0.0"
"517","0.0","0.0"
"518","0.0","0.0"
"519","-0.028229999999998423","0.059965000000000046"
"520","-0.02999357142857154","0.07883357142857099"
"521","-0.08532133333333339","0.10490866666666605"
"522","-0.023947499999999344","0.026004999999997835"
"523","-0.03470599999999955","0.020692000000000377"
"524","-0.026633750000002454","0.029616249999999678"
"525","-0.11901000000001005","0.03430499999999803"
"526","-0.017800000000008254","0.009310000000002816"
"527","-0.0037749999999974193","0.005739999999999412"
"528","-0.011084999999999567","0.021275000000001043"
"529","-0.008444285714285269","0.015245714285713672"
"530","-0.0013900000000006685","0.006119999999999237"
"531","-0.009437777777778914","0.014298888888889158"
"532","-0.027419999999999334","0.012041999999998864"
"533","-0.01392806451612881","0.016021612903225978"
"534","-0.018478596491229207","0.016969122807017612"
"535","-0.010996250000000485","0.015031562499999596"
"536","-0.021933999999998833","0.03327199999999806"
"537","-0.009490624999999753","0.0090562499999991"
"538","-0.010209615384615161","0.011983461538461663"
"539","-0.0033389999999982934","0.011219999999999786"
"540","-0.008249999999999601","0.017750000000000554"
"541","-0.01276272727272566","0.022175454545454443"
"542","-0.02509190476190409","0.014982380952380327"
"543","-0.26385500000000023","1.463482"
"544","-0.017056153846152274","0.01836846153846084"
"545","-0.010928421052630716","0.007730526315788884"
"546","-0.00899833333333433","0.007100833333334815"
"547","-0.011609523809523821","0.014858095238095427"
"548","-0.007896129032257563","0.005552580645161151"
"549","-0.016439302325581592","0.0195616279069768"
"550","-0.014577500000000576","0.01832625000000032"
"551","-0.9522384615384607","0.24423743589743607"
"552","-0.006854166666666038","0.006797777777778593"
"553","-0.009355333333337513","0.00864733333333317"
"554","-0.009760967741936698","0.01199419354838674"
"555","-0.43025294117646906","0.3493305882352948"
"556","-0.01349812500000347","0.012408124999999659"
"557","-0.013769629629632829","0.008957777777777743"
"558","-0.005953846153844849","0.006523076923077571"
"559","-0.017114444444446677","0.018566666666666422"
"560","-1.1009325000000036","0.40600000000000175"
"561","-0.032989999999998076","0.028778000000000505"
"562","-0.016372500000002788","0.013647500000000257"
"563","0.0","0.0"
"564","-0.0021999999999997577","0.0032300000000020646"
"565","0.0","0.0"
"566","-0.0016799999999994597","0.035489999999999355"
"567","-0.039527999999999605","0.05162800000000125"
"568","-0.0033166666666660425","0.027256666666668632"
"569","-0.0335700000000004","0.045659999999998035"
"570","-0.02322500000000005","0.021055000000002266"
"571","-0.0030899999999860484","-0.01594000000000051"
"572","-0.01841999999999544","0.03441624999999915"
"573","-0.009050517241379025","0.015313275862069067"
"574","-0.01104500000000641","1.4500000000161606E-4"
"575","-0.016500000000000625","-0.007319999999999993"
"576","-0.005825000000015734","-0.004300000000002413"
"577","-0.0067159999999987004","4.760000000004538E-4"
"578","-0.009677142857147","-0.0021971428571424057"
"579","-0.01836857142856831","0.009005714285713904"
"580","-0.01068666666666434","-0.0013911111111113428"
"581","-0.014514411764705712","4.7441176470620824E-4"
"582","-0.009636874999999767","0.0014540625000000196"
"583","-0.01392071428571638","0.020563571428571743"
"584","-0.013352857142859673","-0.006851428571428032"
"585","-0.004052666666666956","-0.0011260000000000048"
"586","-0.009176363636361177","0.006449090909090283"
"587","-0.015598888888886917","-0.0034177777777774703"
"588","-0.019165882352939517","0.008315294117647616"
"589","-0.013059090909090349","-0.004514090909091515"
"590","-0.0075783333333330205","0.003099166666666875"
"591","-0.9239361111111124","-0.2518858333333335"
"592","-0.015884827586206553","-0.0012237931034484986"
"593","-0.009895000000001097","-4.993749999997465E-4"
"594","-0.006368750000000034","-0.003171250000000514"
"595","-0.01664866666666498","0.0047140000000003585"
"596","-0.03452500000000095","-0.031887500000000735"
"597","-0.020432962962964304","2.644444444436439E-4"
"598","-0.01472214285714354","-0.005427142857142441"
"599","-0.013488000000000255","-0.01085599999999971"
"600","-0.017525999999998022","-0.008804666666666587"
"601","-0.026938421052631754","0.018531578947368798"
"602","-0.016973846153846877","0.003611538461538653"
"603","0.0","0.0"
"604","-0.022059999999997484","8.636363636366117E-4"
"605","-0.013360476190476063","-0.005015238095238047"
"606","-0.014148999999997613","-0.002537999999999485"
"607","-0.026591875000000265","0.011513750000000211"
"608","-0.05310000000000059","-0.05267099999999978"
"609","-0.06523571428571577","7.514285714285458E-4"
"610","-0.022015714285712664","-0.013005714285714223"
"611","-0.046330000000000426","-0.02439000000000391"
"612","-0.1918499999999992","-0.13265999999999778"
"613","0.0","0.0"
"614","-0.13211999999999957","-0.0062600000000010425"
"615","-0.0208533333333308","-0.012409999999999144"
"616","-0.005451999999999657","-0.012802000000000646"
"617","-0.033393333333333906","-0.03403666666666657"
"618","-0.023724000000000346","-0.0056189999999993745"
"619","-0.004173333333336397","-0.008713333333332685"
"620","-0.007919999999998595","-0.005069999999999908"
"621","0.0","0.0"
"622","-0.03726666666667929","-0.17386333333333326"
"623","-0.014015000000000555","-0.022220000000000795"
"624","-0.01628111111110621","-0.016066666666667513"
"625","-0.03127500000000438","-0.013287499999999675"
"626","-0.029184444444444086","-0.01682222222222249"
"627","-0.016412941176469912","-0.030264705882353252"
"628","-0.006735526315788688","-0.009027631578947691"
"629","-0.23232600000000075","-0.13113479999999975"
"630","-0.010871351351350365","-0.009152162162162312"
"631","-0.0143913636363648","-0.02272227272727243"
"632","-0.018040833333334543","-0.018872500000001107"
"633","-0.007703333333333262","-0.00664600000000064"
"634","-0.013770645161290788","-0.014579677419354817"
"635","-0.020364285714285706","-0.008153571428571078"
"636","-0.018656000000000006","-0.022405999999998726"
"637","-0.01724480000000085","-0.009420799999999901"
"638","-0.011617812500000158","-0.006480312499999474"
"639","-1.0505278571428565","-0.23810928571428583"
"640","-0.015645526315789443","-0.016998684210526572"
"641","-0.013016736842105185","-0.01611326315789452"
"642","-1.2717385416666664","-0.1605193750000001"
"643","-0.009706499999999351","-0.011497499999999938"
"644","-0.007817692307692315","-0.009389230769231132"
"645","-0.009938095238094916","-0.014605714285714893"
"646","-0.008913636363637713","-0.005005454545455605"
"647","-0.013273125000001329","-0.01379124999999859"
"648","-0.014935625000001451","-0.021725000000000216"
"649","-0.024240000000000022","-0.016798846153845713"
"650","-0.015912000000001095","-0.00818000000000083"
"651","-0.014390909090911402","-0.010521818181818077"
"652","-0.01806000000000035","-0.03850181818181785"
"653","-0.018151481481481824","-0.017730740740740564"
"654","-0.038491935483870705","-0.02548290322580646"
"655","-0.03164782608695922","-0.03958652173913056"
"656","-0.034453749999997285","-0.030541249999999298"
"657","-0.05038999999999305","-0.03598499999999838"
"658","0.0","0.0"
"659","0.0","0.0"
"660","0.0","0.0"
"661","-0.012399999999999523","-0.011829999999999785"
"662","0.0","0.0"
"663","-0.01835555555555442","-0.008663333333333393"
"664","-0.04145999999999432","-0.01082800000000006"
"665","-0.003910000000004743","-0.011520000000000863"
"666","0.0","0.0"
"667","0.0","0.0"
"668","-0.0193620000000017","-0.02530400000000057"
"669","-0.01458000000000581","-0.022799999999998377"
"670","-0.02843499999999821","-0.029602500000000198"
"671","-0.006579999999999586","-0.011083333333332964"
"672","-0.008740000000003079","-0.014997999999999933"
"673","-0.023697499999997262","-0.017455000000000886"
"674","-0.010907999999998452","-0.010135000000000005"
"675","-0.00964937499999922","-0.013777916666667242"
"676","-0.03795890909090916","-0.04715854545454502"
"677","-0.009298684210526474","-0.009664473684210487"
"678","-0.005742941176470098","-0.009569705882352194"
"679","-0.004662000000000432","-0.008863999999999568"
"680","-0.006105789473683612","-0.0054684210526315495"
"681","-0.00896687500000004","-0.00898625000000064"
"682","-0.008179999999998225","-0.004194166666667461"
"683","-0.011050000000000181","-0.005011999999999972"
"684","-0.013745000000001133","-0.014098571428571358"
"685","-0.007994374999999554","-0.006597500000000256"
"686","-0.009731304347827473","-0.008450434782609453"
"687","-0.00947800000000143","-0.006610000000002003"
"688","-0.009132195121949675","-0.008521219512195219"
"689","-0.5117516666666662","-0.07612687500000022"
"690","-0.028062758620688914","-0.045952068965516346"
"691","0.0","0.0"
"692","-0.006955333333329842","-0.008984333333332728"
"693","-0.01006625000000172","-0.010154687499999926"
"694","-0.008951304347823947","-0.019144782608695936"
"695","-0.011722083333334984","-0.021316666666666578"
"696","-0.014122692307694798","-0.01276884615384647"
"697","-0.023380000000000224","-0.026327666666667325"
"698","-0.009026041666666687","-0.008260833333333606"
"699","-0.028868095238095748","-0.023140952380952484"
"700","-0.022780526315791486","-0.02567263157894741"
"701","-0.02303475000000077","-0.031686999999999264"
"702","-0.030041785714285396","-0.048728214285714166"
"703","-0.013325714285715305","-0.013709999999999667"
"704","0.0","0.0"
"705","0.0","0.0"
"706","0.0","0.0"
"707","0.0","0.0"
"708","-0.019915000000000127","-0.030649999999997846"
"709","-0.01905000000000001","-0.02480999999999985"
"710","0.0","0.0"
"711","-0.027920833333331174","-0.02076500000000081"
"712","-0.010826666666660026","-0.0035866666666694393"
"713","-0.024082499999999563","-0.017380000000000173"
"714","-0.08697999999999695","-0.053619999999995116"
"715","0.0","0.0"
"716","-0.0104650000000035","-0.022954999999994286"
"717","-0.00612666666665973","-0.007479999999999857"
"718","-0.007957999999997866","-0.009124000000000621"
"719","-0.013269285714283287","-0.011177857142858525"
"720","-0.009937499999996824","-0.011257500000000142"
"721","-0.010177391304348698","-0.015306086956521995"
"722","-0.010696521739132043","-0.014544347826086856"
"723","-0.007808823529412688","-0.009533529411764911"
"724","-0.010234800000000632","-0.014319600000000321"
"725","-0.012460000000001624","-0.006718461538462168"
"726","-0.0041537500000004","-0.012621250000000028"
"727","-0.007690000000001085","-0.007207499999999367"
"728","-0.00621692307692493","-0.009903846153846438"
"729","-0.010038181818180968","-0.007648181818180691"
"730","-0.007855789473682992","-0.008134210526315811"
"731","-0.010751428571428587","-0.008836428571427746"
"732","-0.02061266666666673","-0.019086000000000068"
"733","-0.005342727272726868","-0.010493636363636679"
"734","-0.008985714285713138","-0.012218571428572744"
"735","-0.0060169230769233925","-0.009106153846154359"
"736","-0.0072026470588234725","-0.012975882352941363"
"737","-0.008172424242425662","-0.008407878787879046"
"738","-0.0030606250000024815","-0.005871458333333394"
"739","-0.004534000000003857","-0.02123200000000125"
"740","-0.00646312500000068","-0.013578750000000195"
"741","-0.009169374999998148","-0.020010000000000083"
"742","-0.022554166666668134","-0.018556666666666704"
"743","-0.010883571428568726","-0.01020071428571434"
"744","-0.008177741935483138","-0.007201935483870847"
"745","-0.009849999999999167","-0.010222272727272578"
"746","-0.012384375000003","-0.00808593749999964"
"747","-0.014397368421052641","-0.017832894736841822"
"748","-0.009302631578948032","-0.0146936842105267"
"749","-0.02831458333333477","-0.026615833333333356"
"750","-0.024125416666668304","-0.014758750000000376"
"751","-0.008570000000000633","-0.002355000000000107"
"752","0.0","0.0"
"753","-0.014405000000000001","-0.029215000000000657"
"754","0.0","0.0"
"755","-0.004597500000000254","-0.009227499999997946"
"756","-0.013493666666666975","-0.012369666666666508"
"757","-0.038026666666664134","-0.03028999999999608"
"758","-0.017636923076925343","-0.026186153846153706"
"759","-0.011490000000001407","-0.02828666666666872"
"760","-0.012148888888888444","-0.010246666666665603"
"761","-0.0033805555555558677","-0.006796111111111003"
"762","-0.02342333333333461","-0.020794166666665632"
"763","-0.009609999999999749","-0.0034700000000048212"
"764","-0.01775916666666877","-0.028666666666666767"
"765","-0.007097500000001755","-0.011128750000000576"
"766","-0.006622727272727825","-0.008386060606061367"
"767","-0.004581515151515897","-0.005465151515151536"
"768","-0.019556129032258052","-0.2526932258064524"
"769","-0.00556857142857053","-0.007586857142857489"
"770","-0.009793333333332589","-0.008503333333333266"
"771","-0.007438125000000184","-0.01069375000000028"
"772","-0.00920900000000131","-0.004809000000000907"
"773","-0.005484000000003419","-0.01422299999999943"
"774","-0.008422222222221542","-0.01042777777778091"
"775","-0.010725999999998237","-0.008863999999998384"
"776","-0.007181111111110441","-0.009634444444443268"
"777","-0.005117500000000774","-0.014729999999998356"
"778","-0.00808399999999807","-0.014090999999999455"
"779","-0.010091666666667129","-0.01162666666666734"
"780","-0.010651250000000001","-0.013636874999999105"
"781","-0.009694285714285655","-0.011575714285714054"
"782","-0.005324705882351148","-0.007110588235295769"
"783","-0.21293884615384628","-0.2634292307692315"
"784","-0.007439375000000581","-0.007891666666666927"
"785","-0.008758484848486042","-0.0073472727272733025"
"786","-0.008983076923075171","-0.012320384615386332"
"787","-0.01055499999999938","-0.014168666666667088"
"788","-0.007824999999998502","-0.008819230769231532"
"789","-0.014322916666663707","-0.01786874999999899"
"790","-0.017530263157894785","-0.016265000000000453"
"791","-0.00685711111111118","-0.00785666666666758"
"792","-0.020433999999999723","-0.009354333333332103"
"793","-0.006310000000000441","-0.011702727272727354"
"794","-0.008840609756097047","-0.01060207317073214"
"795","-0.013075757575757569","-0.012294242424241859"
"796","-0.012600624999999255","-0.012224374999999843"
"797","-0.005589090909093128","-0.008060909090909457"
"798","0.0","0.0"
"799","0.0","0.0"
"800","-0.006673333333333087","-0.005133333333333212"
"801","-0.008526666666666927","-0.006566666666665336"
"802","-0.010027142857143012","-0.005677857142856624"
"803","-0.6463372093023259","-0.07360116279069787"
"804","0.0","0.0"
"805","-0.027383333333328135","-0.03147666666666756"
"806","-0.004570000000008179","-0.005935000000000912"
"807","-0.013269999999991455","-0.011560000000002901"
"808","-0.003755000000005282","-0.0038449999999947693"
"809","-0.010226666666667938","-0.015236666666666565"
"810","-0.013256363636361098","-0.01826181818181735"
"811","-0.02328999999998871","-0.030819999999998515"
"812","-0.013822500000003624","-0.008691874999999794"
"813","-0.004943823529413105","-0.007139117647059708"
"814","-0.008669230769231744","-0.008042692307690221"
"815","-0.009471290322581023","-0.012179354838708615"
"816","-0.008716875000000623","-0.012494375000000613"
"817","-0.005720909090909226","-0.008310000000000302"
"818","-0.006869999999999266","-0.013018333333336093"
"819","-0.004063999999998203","-0.013707999999999743"
"820","-0.008714444444444148","-0.012435555555554522"
"821","-0.006288333333335079","-0.011931666666666748"
"822","-0.00991375000000172","-0.008758750000000148"
"823","-0.006047500000001094","-0.010177499999999284"
"824","-0.005868571428569526","-0.011877857142856893"
"825","-0.010855555555555915","-0.008018888888888083"
"826","-0.009032000000001972","-0.010607999999999151"
"827","-0.011422142857143111","-0.013645000000000351"
"828","-0.006439999999999913","-0.007151999999998537"
"829","-0.005465000000000941","-0.010974999999999588"
"830","-0.007671250000001351","-0.010611250000001071"
"831","-0.8744230000000058","-0.5790799999999983"
"832","-0.00841619047619025","-0.01044952380952358"
"833","-0.01188678571428779","-0.022615357142855532"
"834","-0.007932826086957025","-0.010001521739131708"
"835","-0.005265846153844441","-0.006952923076923412"
"836","-0.01521518518518458","-0.009433703703703547"
"837","-0.014958235294117498","-0.012619999999999553"
"838","-0.0100897872340417","-0.013705744680850968"
"839","-0.009974782608694308","-0.009669999999999073"
"840","-0.008900909090907693","-0.009750454545454736"
"841","-0.010430198019803367","-0.009255940594058957"
"842","-0.008148571428571115","-0.0077634285714296425"
"843","-0.00823249999999831","-0.009680000000001243"
"844","-0.026743333333333414","-0.027890000000001674"
"845","-0.030990000000000552","-0.00986999999999938"
"846","0.0","0.0"
"847","0.0","0.0"
"848","-0.008175000000000043","-0.012290000000000134"
"849","0.0","0.0"
"850","-0.0011199999999984556","-0.007659999999994227"
"851","-0.020481111111112997","-0.017179999999999356"
"852","-0.023942999999995607","-0.012264999999999304"
"853","-0.013083333333332448","-0.010826666666667725"
"854","-0.004560000000001452","-1.9000000000346517E-4"
"855","-0.05859999999999843","-0.03597000000000605"
"856","0.0","0.0"
"857","-0.00891142857142922","-0.009358571428571898"
"858","-0.009025714285714668","-0.00828499999999975"
"859","-0.01006904761905029","-0.0072538095238084705"
"860","-0.007464285714284136","-0.012347142857142859"
"861","-0.011595624999999702","-0.00962895833333377"
"862","-0.0066028571428572175","-0.010904285714285524"
"863","-0.004285000000004757","-0.005270000000001218"
"864","-0.0075057894736852105","-0.012923684210527517"
"865","-0.0027083333333332384","-0.007926666666664417"
"866","-0.007503999999998711","-0.007465000000003386"
"867","-0.006520000000000437","-0.001982000000002415"
"868","-0.004669999999997287","-0.011860000000001017"
"869","-0.007570000000001187","-0.007519999999999527"
"870","-0.0036866666666692063","-0.007286666666667922"
"871","-0.006282500000002263","-0.008747499999998354"
"872","-0.005656666666666865","-0.006635999999999835"
"873","-0.005139999999997258","-0.013949999999994134"
"874","0.0","0.0"
"875","-0.010519999999994903","-0.012236666666659346"
"876","-0.012851249999997094","-0.014071249999997981"
"877","-0.006249090909088812","-0.014115454545454043"
"878","-0.008771923076925084","-0.008127692307692605"
"879","-0.007253529411764916","-0.008615882352941431"
"880","-0.011752105263158197","-0.010614736842106553"
"881","-0.00786941176470681","-0.011150588235294127"
"882","-0.010009130434783827","-0.014093478260868462"
"883","-0.012639999999997204","-0.013299999999999963"
"884","-0.21152100000000046","-0.21632133333333325"
"885","-0.011672352941177418","-0.013612352941175864"
"886","-0.007930645161290922","-0.010743548387094943"
"887","-0.00926764705882161","-0.010588431372549344"
"888","-0.01236050000000084","-0.009553000000000367"
"889","-0.011151612903226062","-0.014355161290322233"
"890","-0.013010000000008404","-0.0011500000000097543"
"891","0.0","0.0"
"892","0.0","0.0"
"893","0.0","0.0"
"894","0.0","0.0"
"895","0.0","0.0"
"896","-0.04341499999999954","-0.07737000000000194"
"897","-0.0012400000000001299","-0.0030800000000041905"
"898","-0.015012000000004378","-0.01015599999999921"
"899","-0.016762000000001366","-0.017707999999999658"
"900","-0.009175999999999008","-0.020548000000002276"
"901","-0.0041824999999979795","-0.006225000000000591"
"902","-0.0029900000000004923","-0.001120000000000232"
"903","-0.012800000000000958","-0.011809999999999357"
"904","-0.004661666666664861","-0.007951666666664655"
"905","-0.011482857142853575","-0.011002857142856268"
"906","-0.009238399999998138","-0.009662800000000402"
"907","-0.004262857142858932","-0.006783571428571175"
"908","-0.006541111111110722","-0.007708888888888633"
"909","-0.012193333333331995","-0.008343333333333666"
"910","-0.00824200000000038","-0.007697999999999183"
"911","-0.008779473684210427","-0.009158421052632093"
"912","-0.00846000000000302","-0.008860000000002088"
"913","-0.007989999999999498","-0.0022900000000021237"
"914","-0.0071674999999959965","-0.004952499999999915"
"915","-0.0031199999999955708","-0.009930000000004213"
"916","-7.400000000075124E-4","-0.010109999999997399"
"917","-0.014295000000000613","-9.300000000003195E-4"
"918","-0.010343333333331373","-0.014353333333327592"
"919","-0.011985000000002799","-0.02023499999999956"
"920","-0.006453333333335347","-0.015706666666666536"
"921","0.0","0.0"
"922","-0.014949999999998909","-0.015424999999996913"
"923","0.0","0.0"
"924","-0.008735000000001492","-0.016390000000001237"
"925","-0.006935789473682294","-0.007822631578947966"
"926","-0.10143727272727454","-0.10727439393939411"
"927","-0.0011950000000027217","-0.014819999999996725"
"928","-0.011125714285716373","-0.015976428571428464"
"929","-0.008476666666666688","-0.011511666666664885"
"930","-0.010592666666667583","-0.010460000000000965"
"931","-0.010117999999998517","-0.011666500000002245"
"932","-0.02848869565217295","-0.016554347826086297"
"933","-0.009785937500002895","-0.010117812499999213"
"934","-0.010527647058825598","-0.011899705882353326"
"935","-0.01248372093023486","-0.013580232558139239"
"936","-0.015381562499998669","-0.011105000000000365"
"937","-0.019536363636363643","-0.014576363636362803"
"938","0.0","0.0"
"939","0.0","0.0"
"940","0.0","0.0"
"941","0.0","0.0"
"942","-0.0026450000000002305","-0.007935000000010461"
"943","-0.004129999999999079","-0.10207999999998663"
"944","-0.029289999999999594","-0.06330000000000051"
"945","-0.02743000000000073","-0.07791999999999177"
"946","-0.00374400000000108","-0.008464000000000738"
"947","-0.014239999999998077","-0.01338400000000064"
"948","-0.013420000000010646","-0.0021500000000003183"
"949","-0.0042399999999863285","-0.006513333333330706"
"950","-0.004810000000006198","-0.007627500000003451"
"951","-0.004909999999999367","-0.006787142857140184"
"952","-0.011060000000000514","-0.018775999999996885"
"953","-0.005559999999998174","-0.005998000000000067"
"954","-0.007316956521738389","-0.006710652173912549"
"955","-0.008266666666666348","-0.009470000000001496"
"956","-0.00944166666666805","-0.006965833333334596"
"957","-0.007105714285714271","-0.006220476190476361"
"958","-0.005504999999999427","-0.010209999999997166"
"959","0.0","0.0"
"960","-0.010119999999993468","-0.01711999999999847"
"961","-0.024723749999997047","-0.014338749999997624"
"962","-0.014579999999995152","-0.017529999999993606"
"963","-0.0021500000000003183","-0.013440000000000415"
"964","0.0","0.0"
"965","-0.007356666666666456","-0.013130000000001493"
"966","-0.006039999999998713","-0.019643333333334567"
"967","-0.005137999999999465","-0.00607000000000113"
"968","-0.010529999999997486","-0.013155000000002914"
"969","-0.01712666666666962","-0.012519999999999717"
"970","-0.010993333333329266","-0.016390000000003607"
"971","-0.01650666666666704","-0.008698333333337397"
"972","-0.010719999999995945","-0.021097272727271455"
"973","-0.005634999999999835","-0.0072568750000003845"
"974","-0.009016842105262114","-0.0054505263157906825"
"975","0.0","0.0"
"976","-0.003660000000001181","-0.01223666666666882"
"977","-0.0072620000000029","-0.005440000000000111"
"978","-0.008754166666664768","-0.013194166666668394"
"979","-0.008560000000000513","-0.015118400000000065"
"980","-0.007985937500000428","-0.008800625000000561"
"981","-0.013451428571427088","-0.011260158730158152"
"982","-0.01217196721311528","-0.026028524590163644"
"983","-0.0349455172413787","-0.02262517241379277"
"984","-0.022069090909091926","-0.014648181818182787"
"985","-0.01329249999999682","-0.007307500000000466"
"986","0.0","0.0"
"987","0.0","0.0"
"988","0.0","0.0"
"989","-0.004124999999994827","-0.002829999999999444"
"990","0.0","0.0"
"991","-0.04216799999999985","-0.07199800000000067"
"992","-4.999999999988347E-4","-0.008419999999993877"
"993","-0.017179999999997263","-0.008082000000000278"
"994","0.0","0.0"
"995","-0.030568571428567535","-0.011274285714283192"
"996","-0.010790000000001692","-0.009952727272729011"
"997","-0.008576666666670008","-0.015296666666664294"
"998","-0.00819857142857115","-0.005155714285713486"
"999","-0.005331428571431778","-0.005595714285714085"
"1000","-0.008008888888887934","-0.007667777777779737"
"1001","-0.008410000000001845","-0.009820000000000302"
"1002","-0.013285333333332972","-0.012261333333332895"
"1003","-0.007739000000000118","-0.012083000000001221"
"1004","-0.003561111111114062","-0.006153333333333282"
"1005","0.0","0.0"
"1006","0.0","0.0"
"1007","0.0","0.0"
"1008","-0.010603333333332425","-0.011473333333332884"
"1009","0.0","0.0"
"1010","-0.03702599999999734","-0.009791999999997358"
"1011","-0.008874999999997968","-0.011607500000001991"
"1012","-0.003365999999999758","-0.01139400000000137"
"1013","-0.009100000000001293","-0.009280000000001584"
"1014","-0.007215000000003968","-0.013180000000000192"
"1015","-0.012490000000002036","-0.011970000000000406"
"1016","-0.009993333333331597","-0.007093333333334802"
"1017","-0.014856666666664372","-0.016950000000001353"
"1018","0.0","0.0"
"1019","-0.01692666666666298","-0.021660000000001862"
"1020","-0.01054470588234705","-0.008925294117646258"
"1021","-0.014597499999997154","-0.01637250000000101"
"1022","-0.01230999999999464","-0.028096666666665254"
"1023","-0.013570000000001414","-0.05173500000000075"
"1024","-0.017993333333341372","-0.024169999999998026"
"1025","-0.031137499999999818","-0.026059999999999306"
"1026","-0.02383199999999685","-0.022774666666667068"
"1027","-0.01331476190476317","-0.022790000000000702"
"1028","-0.014940666666665929","-0.028531666666665956"
"1029","-0.012637297297297246","-0.01259027027027008"
"1030","-0.008975365853658684","-0.012600487804879166"
"1031","-0.012299999999996203","-0.028476666666667445"
"1032","0.0","0.0"
"1033","0.0","0.0"
"1034","0.0","0.0"
"1035","-0.0028850000000062437","-0.018045000000004308"
"1036","0.0","0.0"
"1037","-0.007389999999986685","-0.0192999999999941"
"1038","-0.03727181818181839","-0.06921454545454576"
"1039","0.0","0.0"
"1040","-0.05456000000000838","-0.00686999999999216"
"1041","-0.02984900000000117","-0.018667000000002078"
"1042","-0.011197000000001723","-0.015378999999999365"
"1043","-0.012276666666663752","-0.02210666666666583"
"1044","-0.009682500000002037","-0.007699999999996265"
"1045","-0.005357499999999386","-0.005330833333333729"
"1046","-0.006981891891890378","-0.003694324324324942"
"1047","-0.0035712500000038006","-0.004123750000000648"
"1048","-0.006759999999993787","-0.0035242857142857736"
"1049","-0.006312857142858215","-0.00578714285714353"
"1050","-0.004917499999996799","-0.0122850000000021"
"1051","-0.004549999999999462","-0.007203333333333006"
"1052","0.0","0.0"
"1053","0.0","0.0"
"1054","0.0","0.0"
"1055","0.0","0.0"
"1056","0.0","0.0"
"1057","0.0","0.0"
"1058","0.0","0.0"
"1059","0.0","0.0"
"1060","0.0","0.0"
"1061","0.0","0.0"
"1062","0.0","0.0"
"1063","0.0","0.0"
"1064","0.0","0.0"
"1065","-0.008770000000005496","-0.011010000000002407"
"1066","0.0","0.0"
"1067","-0.0028466666666654796","-0.0038333333333350574"
"1068","0.0","0.0"
"1069","-0.016290000000002653","-0.044190000000000396"
"1070","-0.0039991304347866035","-0.007998695652173699"
"1071","-0.009295294117648342","-0.010517647058823259"
"1072","-0.014190000000003996","-0.019586666666666492"
"1073","-0.027940000000015175","-0.04027000000000669"
"1074","0.0","0.0"
"1075","-0.26506480000000265","-0.49504960000000026"
"1076","-0.016175384615385504","-0.01760769230769254"
"1077","-0.17834000000000003","-0.956076"
"1078","-0.01877714285714254","-0.04615571428571436"
"1079","0.0","0.0"
"1080","0.0","0.0"
"1081","0.0","0.0"
"1082","-0.007333333333333612","-0.014438888888889778"
"1083","0.0","0.0"
"1084","0.0","0.0"
"1085","-0.0033999999999991815","-0.007899999999992247"
"1086","-0.04942555555555472","-0.11007000000000033"
"1087","-0.012545625000001115","-0.016279999999999628"
"1088","-0.017377500000001538","-0.008780357142856283"
"1089","-0.00617125000000307","-0.00727124999999873"
"1090","-0.005794999999999106","-0.002649999999999153"
"1091","-0.009421111111109326","-0.008083333333334034"
"1092","-0.19291066666666598","-0.14964666666666773"
"1093","-0.005531666666666861","-0.0030250000000003516"
"1094","0.0","0.0"
"1095","0.0","0.0"
"1096","0.0","0.0"
"1097","0.0","0.0"
"1098","-0.011206666666666365","-0.005273333333332649"
"1099","-0.004495000000002136","-0.009070000000001244"
"1100","-0.011061111111111188","-0.00570777777777841"
"1101","-0.010804285714285251","-0.007167142857143054"
"1102","0.0","0.0"
"1103","0.0","0.0"
"1104","0.0","0.0"
"1105","0.0","0.0"
"1106","0.0","0.0"
"1107","0.0","0.0"
"1108","0.0","0.0"
"1109","0.0","0.0"
"1110","0.0","0.0"
"1111","0.0","0.0"
"1112","0.0","0.0"
"1113","0.0","0.0"
"1114","0.0","0.0"
"1115","-0.007673333333338898","-0.017620000000000857"
"1116","-0.002464999999993722","-0.01583999999999719"
"1117","-0.0060850000000023385","-0.01459000000000188"
"1118","-0.01239333333333074","-0.02058666666666653"
"1119","-0.01134666666666817","-0.0218466666666662"
"1120","-0.019443333333337403","-0.019593333333335277"
"1121","-0.03986500000000248","-0.024654999999995653"
"1122","-0.01646000000000214","-0.00956000000000401"
"1123","0.0","0.0"
"1124","0.0","0.0"
"1125","0.0","0.0"
"1126","0.0","0.0"
"1127","0.0","0.0"
"1128","0.0","0.0"
"1129","0.0","0.0"
"1130","0.0","0.0"
"1131","0.0","0.0"
"1132","0.0","0.0"
"1133","0.0","0.0"
"1134","0.0","0.0"
"1135","0.0","0.0"
"1136","0.0","0.0"
"1137","0.0","0.0"
"1138","0.0","0.0"
"1139","0.0","0.0"
"1140","0.0","0.0"
"1141","0.0","0.0"
"1142","0.0","0.0"
"1143","0.0","0.0"
"1144","0.0","0.0"
"1145","0.0","0.0"
"1146","0.0","0.0"
"1147","0.0","0.0"
"1148","-0.011219999999999786","-0.003972499999999712"
"1149","0.0","0.0"
"1150","0.0","0.0"
"1151","0.0","0.0"
"1152","0.0","0.0"
"1153","0.0","0.0"
"1154","0.0","0.0"
"1155","0.0","0.0"
"1156","0.0","0.0"
"1157","0.0","0.0"
"1158","0.0","0.0"
"1159","0.0","0.0"
"1160","0.0","0.0"
"1161","0.0","0.0"
"1162","0.0","0.0"
"1163","0.0","0.0"
"1164","0.0","0.0"
"1165","0.0","0.0"
"1166","0.0","0.0"
"1167","0.0","0.0"
"1168","0.0","0.0"
"1169","0.0","0.0"
"1170","0.0","0.0"
"1171","0.0","0.0"
"1172","0.0","0.0"
"1173","0.0","0.0"
"1174","0.0","0.0"
