"cell_id","acc_x","acc_y"
"0","0.0","0.0"
"1","0.0","0.0"
"2","0.0","0.0"
"3","-0.008545000000000025","0.00999124999999998"
"4","0.0","0.0"
"5","0.0","0.0"
"6","0.0","0.0"
"7","0.0","0.0"
"8","0.0","0.0"
"9","0.0","0.0"
"10","0.0","0.0"
"11","0.0","0.0"
"12","0.0","0.0"
"13","0.0","0.0"
"14","0.0","0.0"
"15","-0.13851903225806372","0.5336925806451615"
"16","0.0","0.0"
"17","0.0","0.0"
"18","0.0","0.0"
"19","0.0","0.0"
"20","0.0","0.0"
"21","-0.04939000000000249","0.06105000000000049"
"22","0.0","0.0"
"23","0.0","0.0"
"24","0.0","0.0"
"25","0.0","0.0"
"26","0.0","0.0"
"27","0.0","0.0"
"28","0.0","0.0"
"29","0.0","0.0"
"30","0.0","0.0"
"31","0.0","0.0"
"32","0.0","0.0"
"33","0.0","0.0"
"34","0.0","0.0"
"35","0.0","0.0"
"36","0.0","0.0"
"37","0.0","0.0"
"38","0.0","0.0"
"39","0.0","0.0"
"40","0.0","0.0"
"41","0.0","0.0"
"42","0.0","0.0"
"43","0.0","0.0"
"44","-0.034283333333329814","0.013419999999999987"
"45","-0.03399800000000539","0.04606400000000001"
"46","-0.06536866666666488","0.1816293333333334"
"47","0.0","0.0"
"48","0.0","0.0"
"49","-0.004829999999998336","0.010430000000000272"
"50","-0.01148269230769267","0.013683461538461552"
"51","-0.009415714285713608","0.01297642857142854"
"52","0.0","0.0"
"53","0.0","0.0"
"54","0.0","0.0"
"55","-0.013280000000004103","0.007083333333333257"
"56","-0.006137999999995714","0.006302000000000163"
"57","-0.004026666666665808","0.005386666666666577"
"58","0.0","0.0"
"59","0.0","0.0"
"60","0.0","0.0"
"61","0.0","0.0"
"62","0.0","0.0"
"63","0.0","0.0"
"64","-0.04139250000000416","0.02293999999999985"
"65","-0.012805999999999073","0.013677999999999902"
"66","-0.007986666666665107","0.006080000000000159"
"67","-0.010772857142858885","0.010227142857142641"
"68","-0.020541428571426934","0.028274285714285696"
"69","0.0","0.0"
"70","0.0","0.0"
"71","0.0","0.0"
"72","0.0","0.0"
"73","0.0","0.0"
"74","0.0","0.0"
"75","0.0","0.0"
"76","0.0","0.0"
"77","0.0","0.0"
"78","0.0","0.0"
"79","0.0","0.0"
"80","0.0","0.0"
"81","-0.0027599999999949887","0.0056400000000005335"
"82","-0.01003500000000912","0.025085000000000024"
"83","-2.800000000036107E-4","0.026730000000000143"
"84","0.0","0.0"
"85","0.0","0.0"
"86","0.0","0.0"
"87","0.0","0.0"
"88","0.0","0.0"
"89","0.0","0.0"
"90","0.0","0.0"
"91","-0.00590000000000046","0.01940499999999995"
"92","-0.015239999999991483","0.024249999999999883"
"93","0.0","0.0"
"94","0.0","0.0"
"95","0.0","0.0"
"96","-0.006416451612903502","0.013934516129032263"
"97","-0.006951000000001706","0.010290000000000177"
"98","-0.003338571428573443","0.019542857142857147"
"99","-0.00456000000001211","0.0014100000000007995"
"100","-0.013780000000001754","0.004399999999999811"
"101","-0.011919999999982167","0.012300000000000644"
"102","-0.0013900000000006685","0.0022799999999993936"
"103","-0.02850999999999715","0.00817999999999941"
"104","-0.01592333333333566","0.015809999999999953"
"105","-0.015099230769230997","0.02425846153846151"
"106","-0.015684736842105713","0.018504210526315613"
"107","-0.019373809523809966","0.027902380952380887"
"108","-0.015868928571429613","0.014466071428571496"
"109","-0.02096499999999999","0.013070999999999966"
"110","-0.008853750000000993","0.018586249999999804"
"111","-0.01922374999999832","0.023721250000000138"
"112","-0.004730000000002121","0.0066549999999998555"
"113","-0.0018533333333342246","0.015226666666666056"
"114","-0.0013700000000014256","0.006070000000000242"
"115","-0.014409999999998035","0.009840000000000515"
"116","0.0","0.0"
"117","0.0","0.0"
"118","0.0","0.0"
"119","0.0","0.0"
"120","0.0","0.0"
"121","0.0","0.0"
"122","0.0","0.0"
"123","0.0","0.0"
"124","0.0","0.0"
"125","0.0","0.0"
"126","0.0","0.0"
"127","-0.0065949999999901365","0.0069350000000003575"
"128","-0.004419999999996094","0.004809999999999981"
"129","-0.005835000000011803","0.005624999999999325"
"130","-0.01178500000001037","0.004229999999999734"
"131","-0.007424999999998683","0.022567500000000018"
"132","-0.0038899999999983947","0.02395999999999887"
"133","0.0","0.0"
"134","0.0","0.0"
"135","0.0","0.0"
"136","0.0","0.0"
"137","-0.013383333333327604","0.022581666666666427"
"138","-0.02914727272727191","0.032326363636363424"
"139","0.0","0.0"
"140","0.0","0.0"
"141","0.0","0.0"
"142","0.0","0.0"
"143","-0.021951666666664","0.017306666666666654"
"144","-0.013091249999996002","0.021083750000000068"
"145","-0.002554000000009182","0.00950400000000009"
"146","-0.001069999999998572","0.0029399999999997206"
"147","-0.0047700000000077125","0.006509999999999572"
"148","-0.021248000000005263","0.026279999999999682"
"149","-0.01596750000000302","0.026987500000000053"
"150","-0.00984076923077081","0.025553076923076973"
"151","-0.03909000000000162","0.07169000000000025"
"152","-0.026339999999999364","0.02740750000000003"
"153","-0.017613999999996112","0.03165399999999998"
"154","-0.02339062499999911","0.018136250000000076"
"155","-0.024654444444444854","0.037504444444444465"
"156","-0.01370999999999789","0.03843000000000041"
"157","-0.06140999999999982","0.05922666666666684"
"158","-0.033374545454544796","0.030099090909090798"
"159","-0.027347142857145457","0.023818571428571595"
"160","-0.01860600000000261","0.03029599999999988"
"161","-0.007469999999990762","0.018480000000000274"
"162","-0.013352499999999878","0.01679500000000056"
"163","-0.006227142857144129","0.008475714285714428"
"164","-0.002279999999995397","0.00619000000000014"
"165","-0.004274999999999807","0.015954999999999497"
"166","-0.009335000000000093","0.004624999999999879"
"167","-0.004816666666670244","0.010443333333333213"
"168","-0.006075000000002717","0.003080000000000638"
"169","-0.003873333333335912","0.00732999999999991"
"170","-0.012820000000004939","0.004389999999999006"
"171","-0.00945499999999555","0.011584999999999734"
"172","-0.0031199999999884653","7.299999999990092E-4"
"173","-0.0027950000000025454","0.005545000000000133"
"174","-0.005670000000009168","0.005910000000000082"
"175","-0.013995000000001312","0.00533500000000009"
"176","-0.01797666666665994","0.0074666666666667325"
"177","-0.015310833333334273","0.017503333333333242"
"178","-0.0058125000000011084","0.008187499999999792"
"179","-0.019146666666666572","0.003646666666666576"
"180","-0.010517142857145651","0.010028571428571656"
"181","-0.004812000000001149","0.0033340000000000813"
"182","0.0","0.0"
"183","-0.019533333333328073","0.02363333333333273"
"184","-0.012027777777779155","0.011833333333333387"
"185","-0.01174500000000478","0.012785000000000046"
"186","0.0","0.0"
"187","0.0","0.0"
"188","0.0","0.0"
"189","-0.04236499999998955","0.04282999999999948"
"190","-0.0260528571428571","0.018735714285714522"
"191","-0.00900333333333799","0.014746666666668537"
"192","-0.008331428571425548","0.00913571428571393"
"193","-0.015425000000004019","0.03693999999999953"
"194","-0.009547142857142279","0.028875714285713703"
"195","-0.00562749999999923","0.01277499999999998"
"196","-0.0069000000000016826","0.007789999999999964"
"197","-0.012696000000001106","0.023019999999999877"
"198","-0.011095882352941167","0.011571764705882248"
"199","-0.0579049999999981","0.03365999999999936"
"200","-0.025460000000004257","0.026479999999999837"
"201","-0.015372857142857426","0.01885035714285697"
"202","-0.014051666666668202","0.0195933333333335"
"203","-0.028916666666666185","0.033773333333333135"
"204","-0.056027500000000785","0.04683999999999955"
"205","-0.004436666666665682","0.008143333333332356"
"206","-0.0059674999999952405","0.005832499999999907"
"207","-0.013122000000001322","0.006696000000000169"
"208","-0.007359999999997058","0.015647999999999485"
"209","-0.011767999999997869","0.006720000000000681"
"210","-0.005807499999999521","0.010370000000000434"
"211","-0.010558333333335668","0.01224499999999947"
"212","-0.004498333333334159","0.007439999999999891"
"213","-0.010665999999999088","0.019048000000000086"
"214","-0.0035900000000002783","0.018923333333331627"
"215","-0.006436000000002195","0.024012000000000457"
"216","-0.03973999999999833","0.02242000000000033"
"217","-0.012614999999998489","0.004845000000000432"
"218","-0.034559999999999036","0.01834999999999809"
"219","-0.006152499999998895","0.009842499999999976"
"220","-0.010930000000000994","0.015360000000000262"
"221","-0.009791666666669604","0.014501666666666857"
"222","-0.012008749999990798","0.011402499999999316"
"223","-0.024361111111114536","0.02301444444444487"
"224","-0.015581578947368101","0.013104210526315906"
"225","-0.012226363636364888","0.011635454545454671"
"226","-0.01293952380952473","0.01096190476190476"
"227","-0.007995333333333103","0.012614000000000184"
"228","-0.008673333333334199","0.01864999999999976"
"229","-0.014935555555554616","0.010736666666666592"
"230","-0.009318846153846039","0.009345384615384452"
"231","-0.003789090909092155","0.01032727272727272"
"232","-0.05307999999999898","0.020069999999999588"
"233","0.0","0.0"
"234","0.0","0.0"
"235","-0.006964999999986787","0.023120000000000474"
"236","-0.02660444444444179","0.022926666666666762"
"237","-0.004699999999994375","0.011295000000000499"
"238","-0.016496666666673338","0.0098866666666666"
"239","-0.00643500000000093","0.008261666666666537"
"240","-0.005143999999999238","0.008659999999999713"
"241","-0.024204999999999366","0.02084499999999956"
"242","-0.02872666666666568","0.021833333333335148"
"243","-0.015241999999999579","0.020759999999999935"
"244","-0.029572000000000997","0.04859400000000065"
"245","-0.021365714285715192","0.01871928571428543"
"246","-0.006942999999998989","0.01572399999999998"
"247","-0.010189999999999344","0.01390699999999967"
"248","-0.015359523809523878","0.015177380952380854"
"249","-0.8242757894736845","0.5321121052631578"
"250","-0.021817500000000933","0.02008249999999956"
"251","-0.01335714285714167","0.0229128571428581"
"252","-0.023641000000000644","0.015900000000000424"
"253","-0.004539999999998656","0.005260000000001597"
"254","0.0","0.0"
"255","-0.010102500000000347","0.00663499999999928"
"256","-0.003530000000004918","0.034190000000002385"
"257","-0.003915999999998121","0.0025319999999990016"
"258","-0.0036909090909075944","0.004920909090908668"
"259","-0.006180476190475507","0.004972857142857006"
"260","-0.006402499999998312","0.02092500000000097"
"261","-0.011280000000000179","0.022811249999999728"
"262","-0.010185714285711356","0.011211428571428681"
"263","-0.011206666666671103","0.007630000000000099"
"264","-0.024397142857142944","0.00948285714285646"
"265","-0.01250599999999622","0.00538400000000081"
"266","-0.005093333333331174","0.007258333333333884"
"267","-0.01461999999999719","0.016269999999999563"
"268","-0.004810909090907826","0.01747500000000013"
"269","-0.011312500000002501","0.007189999999998697"
"270","-0.0060499999999983345","0.021444999999999492"
"271","-0.027964000000002896","0.017688000000001126"
"272","-0.0085733333333293","0.01678666666666749"
"273","-0.011800769230769849","0.00944192307692329"
"274","-0.00997500000000733","0.00707214285714259"
"275","-0.017910000000000537","0.01494866666666681"
"276","-0.17303608695652203","0.13308869565217393"
"277","-0.007595185185178576","0.008803703703703779"
"278","-0.004113888888887295","0.005682777777777975"
"279","-0.007923999999998443","0.010823999999999856"
"280","0.0","0.0"
"281","0.0","0.0"
"282","-0.0014499999999912916","0.028440000000001575"
"283","-0.014135999999990646","0.01726799999999997"
"284","-0.003523999999995908","0.014250000000000184"
"285","-0.007430000000006487","0.004635000000000389"
"286","-0.009195000000000656","0.006643333333334371"
"287","-0.015949999999989473","0.004035000000000899"
"288","-0.01633000000000055","0.03408666666666704"
"289","0.0","0.0"
"290","0.0","0.0"
"291","0.0","0.0"
"292","-0.030256666666668746","0.016040000000000276"
"293","-0.01332000000000022","0.020713333333334027"
"294","-0.014227499999999171","0.022788749999999913"
"295","-0.020489999999999498","0.013524500000000028"
"296","-0.015386896551724025","0.014495862068965632"
"297","-0.027745294117647663","0.014826470588235326"
"298","-0.01087400000000116","0.007400000000000162"
"299","-0.012006666666665817","0.010424444444444084"
"300","-0.015050769230771702","0.007889999999999868"
"301","-0.010457999999997015","0.008845999999999776"
"302","-0.028461666666666236","0.01109833333333358"
"303","-0.009542105263158282","0.006530526315789811"
"304","-0.0017400000000051818","0.004480000000000928"
"305","-0.005922500000000497","0.006649999999999601"
"306","-0.010544999999996918","0.01299500000000009"
"307","-0.0027799999999977842","0.00836000000000059"
"308","-0.006449999999998113","0.008027999999999836"
"309","-0.00445000000000384","0.00758250000000027"
"310","-0.007977500000000859","0.009730000000000683"
"311","-0.012832500000000024","0.012295000000000389"
"312","-0.008356666666667678","0.007593333333333637"
"313","-0.012376000000001853","0.010301999999999723"
"314","-0.013609999999996347","0.02033999999999958"
"315","-0.006334210526314023","0.005894210526315628"
"316","-0.016137000000000512","0.032547999999999536"
"317","-0.006333333333320941","0.035656666666668"
"318","-0.011896363636366076","0.01550090909090959"
"319","-0.008094615384613655","0.013009230769230594"
"320","-0.013370714285714362","0.013230000000000328"
"321","-0.015085999999997313","0.01319799999999951"
"322","-0.009872424242422023","0.017662424242424195"
"323","-0.029810714285712185","0.02397785714285686"
"324","-0.005502500000002186","0.01332500000000092"
"325","-0.009530666666659233","0.01794933333333321"
"326","-0.01115000000000066","0.004859999999998976"
"327","0.0","0.0"
"328","0.0","0.0"
"329","-0.0029350000000079035","0.014490000000001224"
"330","-0.03404600000000073","0.024822000000000698"
"331","-0.017410000000005255","0.017720000000000624"
"332","-1.4158934615384604","0.4166173076923084"
"333","-0.019882777777778287","0.016163333333333085"
"334","-0.018322500000006015","0.016859999999999875"
"335","-0.02859749999999517","0.012337500000000112"
"336","-0.02172000000000196","0.005529999999998481"
"337","0.0","0.0"
"338","-0.007957500000003392","0.002840000000000842"
"339","-0.03412500000000307","0.020272499999998583"
"340","-0.04811555555555379","0.04657666666666612"
"341","-0.01830699999999954","0.01557499999999994"
"342","-0.009437499999999589","0.009458000000000143"
"343","-0.04132666666666707","0.35278377777777753"
"344","-0.011196666666666152","0.019417499999999865"
"345","-0.02199962962962916","0.014736296296296848"
"346","-0.012555555555555348","0.015410666666666807"
"347","-0.023288000000000152","0.017212000000000494"
"348","-0.0023799999999987165","0.007629999999999508"
"349","-0.004928571428569585","0.006719999999999869"
"350","-0.006537142857143051","0.009790000000000632"
"351","0.0","0.0"
"352","-1.1999999999545707E-4","1.8999999999991246E-4"
"353","-0.00307250000000181","0.004470000000000418"
"354","-0.009475000000001899","0.007279999999998843"
"355","0.0","0.0"
"356","-0.006393999999998812","0.009802000000000177"
"357","-0.007682499999997816","0.0074824999999996145"
"358","-0.011983999999996798","0.009741999999999962"
"359","-0.011426666666662774","0.033003333333332684"
"360","-0.01722999999999904","0.017988333333332978"
"361","-0.005988421052633741","0.009650526315789588"
"362","-0.022102692307693853","0.01730461538461534"
"363","-0.012664545454544974","0.01700909090909083"
"364","-0.012901111111111006","0.020003888888889005"
"365","-0.009218749999995168","0.023902500000000382"
"366","-0.009314000000003375","0.01625199999999971"
"367","-0.005548571428574535","0.014831428571428162"
"368","-0.013679999999999382","0.013199000000000183"
"369","-0.01426277777777961","0.015057222222222697"
"370","-0.019142272727272314","0.029506363636363518"
"371","-0.021252142857147556","0.022170714285714283"
"372","-0.009766923076919799","0.01235076923076925"
"373","-0.4389019999999977","0.0592559999999996"
"374","-0.00981000000000165","0.002409999999999357"
"375","0.0","0.0"
"376","-0.008399999999994634","0.014920000000003597"
"377","-0.01750545454545328","0.017920909090909213"
"378","0.0","0.0"
"379","-0.015476666666665634","0.022854242424242138"
"380","-0.01565800000000337","0.026467999999999846"
"381","-0.008554999999994095","0.008780000000001564"
"382","-0.04121333333333155","0.009466666666667104"
"383","0.0","0.0"
"384","0.0","0.0"
"385","-0.05562500000000625","0.03423500000000246"
"386","-0.05095799999999997","0.012586000000000297"
"387","0.0","0.0"
"388","-0.004580000000000695","0.0032114285714288015"
"389","-0.0062400000000018","0.03229999999999578"
"390","-0.013336315789473474","0.011484210526315857"
"391","-0.010708888888889274","0.01941666666666701"
"392","-0.015527826086956416","0.015957173913043066"
"393","-0.013427428571428379","0.01709571428571464"
"394","-0.020961666666666663","0.019022333333333682"
"395","-0.007586666666670776","0.03464333333333632"
"396","-0.009171666666665837","0.005185000000001476"
"397","-7.800000000059981E-4","9.89999999998048E-4"
"398","-0.006549999999997169","0.0060199999999959175"
"399","-0.013109999999997513","0.011184999999997558"
"400","-0.008729999999999905","0.010590000000004096"
"401","-0.009571428571430627","0.005974285714286408"
"402","-2.899999999996794E-4","0.006530000000001479"
"403","-0.01423545454545596","0.011030909090909091"
"404","-0.008994999999998754","0.006330000000000169"
"405","-0.0033090000000008503","0.007437999999999789"
"406","-0.005285714285716178","0.007054285714285616"
"407","-0.011138000000001114","0.011775999999999343"
"408","-0.05537285714286254","0.08281428571428455"
"409","-0.0048095454545515086","0.006512727272726822"
"410","-0.007412222222223856","0.004004444444444822"
"411","-0.008236400000001254","0.011947600000000023"
"412","-0.009365294117645483","0.008835294117646948"
"413","-0.006272142857140141","0.011288571428571283"
"414","-0.22319023809523722","0.23793666666666646"
"415","-0.0074324137931040864","0.012727241379310649"
"416","-0.009661428571427726","0.011163333333333657"
"417","-0.008745312499999436","0.008889062499999711"
"418","-0.007627142857140866","0.006552500000000373"
"419","-0.008743076923077698","0.010815769230769426"
"420","-0.007566250000003549","0.0086793749999996"
"421","0.0","0.0"
"422","0.0","0.0"
"423","0.0","0.0"
"424","-0.015817142857144972","0.014427142857143289"
"425","-0.04191124999999962","0.049040000000000195"
"426","-0.023082857142859275","0.022438571428570548"
"427","0.0","0.0"
"428","-0.05206999999999873","0.035029999999999006"
"429","-0.018517777777777016","0.008119999999998524"
"430","-0.010782499999998585","0.010552499999997522"
"431","-0.046420000000011896","0.01675000000000182"
"432","-0.05638000000000076","0.07399749999999905"
"433","-0.01958999999999378","0.061209999999995546"
"434","-0.007966000000001828","0.0045459999999998505"
"435","0.0","0.0"
"436","0.0","0.0"
"437","-0.025960454545453746","0.011179545454545642"
"438","-0.4950101538461542","0.22854076923076944"
"439","-0.019960400000000433","0.013392200000000543"
"440","-0.5725381818181835","0.45191454545454485"
"441","-0.015646666666667624","0.009656666666666425"
"442","-0.03180074074074134","0.0170840740740743"
"443","-0.008208666666666413","0.01093599999999976"
"444","-0.011538181818183607","0.0106600000000008"
"445","-0.6022240000000004","0.1570134999999998"
"446","-0.004422500000002216","0.007302499999997991"
"447","-0.014815000000002243","0.019335000000001656"
"448","-0.009162307692307628","0.006749999999999983"
"449","-0.008875000000000188","0.008632500000001153"
"450","-0.4312149999999999","0.11119000000000057"
"451","0.0","0.0"
"452","0.0","0.0"
"453","-0.014852499999999935","0.008035000000002235"
"454","-0.022995555555552646","0.035643333333334776"
"455","-0.005179761904761294","0.004725952380952626"
"456","-0.024428749999999333","0.029078125000000288"
"457","-0.017181999999999677","0.018668400000000532"
"458","-0.006831249999997624","0.008158750000001547"
"459","-0.010921666666665115","0.011401666666666877"
"460","-0.014144375000000764","0.010483750000000791"
"461","-0.012365789473684842","0.009589473684210615"
"462","-0.0061400000000010856","0.00757800000000041"
"463","-0.018569090909087486","0.01706909090909066"
"464","-0.018499999999999517","0.017519999999999907"
"465","-0.01570733333333294","0.016438666666666536"
"466","-0.0064307142857172395","0.007505000000000602"
"467","-0.020071999999999455","0.012022333333333534"
"468","-0.011926666666672267","0.0038966666666659933"
"469","0.0","0.0"
"470","0.0","0.0"
"471","-0.0396919999999966","0.07680199999999929"
"472","-0.07879499999999706","0.053869999999998974"
"473","0.0","0.0"
"474","-0.03665000000000044","0.03403833333333258"
"475","-0.016883333333325368","0.007946666666666621"
"476","-0.01343499999999409","0.01495499999999872"
"477","0.0","0.0"
"478","-0.017508000000003677","0.0189620000000005"
"479","-0.10643500000000117","0.09795000000000176"
"480","-0.009510000000001165","0.004026666666666993"
"481","-0.01654999999999518","0.013130000000000308"
"482","-0.006593333333327678","0.003536666666664227"
"483","-0.007871428571425452","0.005220714285714832"
"484","-0.0077699999999990485","0.010912352941176722"
"485","-0.3578547058823537","0.16005661764705864"
"486","-0.013456578947367305","0.010831578947368794"
"487","-0.009277659574467061","0.006832978723404242"
"488","-0.0052526315789482156","0.011432631578948173"
"489","-0.026799230769231467","0.017203846153846368"
"490","-0.006834999999997926","0.0082125000000004"
"491","-0.011412272727273631","0.007098636363636501"
"492","-0.010566666666668686","0.010121666666666288"
"493","-0.0105729999999987","0.008597000000001387"
"494","-0.010704545454549413","0.007020909090908457"
"495","-0.009055000000000035","0.022459999999997038"
"496","-0.012572500000000097","0.010132499999998767"
"497","-0.006116666666664451","0.006696666666665784"
"498","-0.0062118181818187875","0.01005409090908994"
"499","-0.005396666666667629","0.00666055555555604"
"500","-0.004726363636363958","0.004657272727273726"
"501","-0.003842142857143825","0.0069178571428571345"
"502","-0.0037599999999999504","0.0032411842105259468"
"503","-0.011524761904760388","0.02745809523809516"
"504","-0.018252380952382567","0.023089047619047825"
"505","-0.019166190476190486","0.033417142857142694"
"506","-0.019586000000003878","0.006930999999999976"
"507","-0.009394999999997822","0.004116666666667139"
"508","-0.02303250000000361","0.028990499999999565"
"509","-0.018081818181819642","0.019235909090908686"
"510","-0.019386153846152884","0.010878461538461273"
"511","-0.03131249999999971","0.02243166666666596"
"512","-0.013974285714285526","0.009493571428570848"
"513","-0.017699999999997353","0.07879333333333208"
"514","-0.02543923076922939","0.025966923076923585"
"515","-0.03721375000000293","0.023097499999999993"
"516","-0.004800909090907236","0.004900909090909264"
"517","-0.03494999999999493","0.001580000000000581"
"518","-0.021924999999995753","0.01600999999999786"
"519","-0.04288999999999987","0.0015799999999970282"
"520","-0.025169999999999693","0.05037499999999717"
"521","-0.020186250000000294","0.032255000000000145"
"522","-0.022315000000007856","0.026390000000001024"
"523","-0.00975000000000037","0.0985400000000034"
"524","-0.014444999999999375","0.04686999999999841"
"525","-0.024432500000003188","0.032410000000000494"
"526","-0.017571666666666985","0.017073333333334162"
"527","-0.02394666666666841","0.015516666666665438"
"528","-0.016059999999995966","0.005419999999997316"
"529","-0.016388571428571704","0.027164285714285592"
"530","-6.799999999884676E-4","0.01478999999999786"
"531","-0.19557281250000003","0.034932812500000465"
"532","-0.03291684210526419","0.03847368421052603"
"533","-0.013734444444444764","0.0116457777777783"
"534","-0.010831249999999404","0.006213125000000375"
"535","-0.9426758823529406","0.24805117647058866"
"536","-0.011181739130434395","0.007708695652173556"
"537","-0.009801999999999112","0.014283999999997122"
"538","-0.016491666666665832","0.005098333333333945"
"539","-0.014117999999999142","0.003907999999999845"
"540","-0.009602000000000999","0.009026000000001488"
"541","-0.008689999999999642","0.006247499999998851"
"542","-0.0036060000000020407","0.005592000000000752"
"543","-0.007976470588234677","0.007450588235294183"
"544","-0.008080000000000531","0.008522500000000655"
"545","-0.008066666666669184","0.009893333333335383"
"546","-0.013157999999999958","0.013443999999998369"
"547","-0.007618333333335059","0.015225833333332753"
"548","-0.011087142857142851","0.013278571428571695"
"549","-0.5604536363636368","0.13489159090909142"
"550","-0.006863499999996492","0.02029149999999973"
"551","-0.036580666666669495","0.030205333333333566"
"552","-0.00961000000000157","0.01672461538461543"
"553","-0.011236086956523773","0.012930434782607908"
"554","-0.01381333333333251","0.014237777777777464"
"555","-0.07729464285714194","0.08257053571428573"
"556","-0.017748571428571985","0.010129642857142558"
"557","-0.01174965517241515","0.008044827586206891"
"558","-0.0149333333333309","0.015428333333334068"
"559","-0.05295000000000982","0.04627999999999943"
"560","-0.015501000000000431","0.010017000000000564"
"561","-0.02832857142857494","0.042472142857142306"
"562","-0.03223999999998739","0.0031899999999964734"
"563","-0.010298000000000229","0.0012679999999988922"
"564","0.0","0.0"
"565","-0.009704999999997929","-0.03389999999999974"
"566","-0.031100000000002126","-0.1056000000000008"
"567","-0.02823666666667515","0.003571111111112499"
"568","-0.027325000000001154","0.01832374999999864"
"569","-0.05082000000000342","-0.02624000000000226"
"570","-0.0935349999999886","-0.027020000000000266"
"571","-0.02366636363636684","0.016464545454545162"
"572","-0.005330000000000723","6.875000000006182E-4"
"573","-0.00859399999999937","0.012540000000000617"
"574","-0.005793999999997368","-0.004620000000002023"
"575","-0.0040156250000003","0.001811250000000264"
"576","-0.009514374999998632","0.0029393749999997443"
"577","-0.008294999999998906","0.0023908333333328238"
"578","-0.012663272727272941","0.002828545454545858"
"579","-0.012864374999998596","0.008971875000000518"
"580","0.0","0.0"
"581","-0.008656279069767245","0.004242558139534968"
"582","-0.005539333333333237","-0.004866333333332662"
"583","-0.010870833333334199","8.620833333323752E-4"
"584","-0.0037323809523807463","-0.003349047619048391"
"585","-0.26085949999999836","0.17376049999999896"
"586","-0.01090285714285853","0.0023557142857149366"
"587","-0.006686000000001968","-0.005287999999998761"
"588","-0.01817166666666381","0.0014466666666693346"
"589","-0.003510000000000938","-0.009721666666667517"
"590","-0.007104615384613147","-0.012392307692307506"
"591","-0.004260000000003335","-9.033333333340702E-4"
"592","-0.0030688235294103177","0.003549411764706304"
"593","-0.010785454545455118","-0.004158636363636861"
"594","-0.014029354838710891","-0.010425806451613473"
"595","-0.01874949999999913","-0.017119499999999198"
"596","-0.03085720000000123","-0.007249599999999816"
"597","-0.013772083333333166","0.008365833333333109"
"598","-0.010000000000000743","0.004708461538462016"
"599","-0.011786250000001885","-0.0340812499999994"
"600","-0.014157647058823386","-0.010005882352942516"
"601","-0.014264166666664599","-0.007335000000000462"
"602","-0.017269672131147974","0.00941573770491801"
"603","-0.014257916666662021","-0.015641666666666776"
"604","-0.013616176470588007","-0.0014335294117645623"
"605","-0.014827142857144048","-0.0042866666666666236"
"606","-0.014513636363638872","-0.007025454545455193"
"607","-0.025383999999999674","-0.003041999999999945"
"608","-0.062313999999996386","0.08648700000000034"
"609","-0.10639000000001413","-0.04308333333333181"
"610","-0.00622499999998638","-0.0034874999999994216"
"611","-0.026119999999991705","-0.05969999999999587"
"612","-0.03134444444444758","-0.02742555555555468"
"613","-0.02978666666667588","-0.02920999999999907"
"614","-0.03340250000000211","-0.026433750000001588"
"615","-0.016404999999998893","-0.02351999999999954"
"616","0.0","0.0"
"617","-0.004380000000011819","-0.004139999999996036"
"618","0.0","0.0"
"619","0.0","0.0"
"620","0.0","0.0"
"621","-0.02294500000000177","-0.01080499999999951"
"622","-0.002510000000004453","-0.007193999999999789"
"623","-0.007327142857142073","-0.00469428571428665"
"624","-0.011274545454547858","-0.01392909090909068"
"625","-0.004954545454542628","-0.007532727272726641"
"626","-0.017600000000001614","-0.001160000000005823"
"627","-0.0012899999999973488","-7.999999999981355E-4"
"628","-0.009801428571429531","-0.005067142857142873"
"629","-0.013706153846153112","-0.006631538461538556"
"630","-0.013471764705881425","-0.01132764705882248"
"631","-0.013805500000002979","-0.02266799999999982"
"632","-0.010172500000001606","-0.008636499999999537"
"633","-0.007195000000000216","-0.004392692307693125"
"634","-0.0037231578947372525","-0.009299473684210935"
"635","-0.004387272727270706","-0.00853909090909029"
"636","-0.005935600000000818","-0.013756800000000027"
"637","-0.009188181818181172","-0.011215454545454827"
"638","-0.006634375000000858","-0.01360500000000009"
"639","-0.012263076923076436","-0.02426384615384582"
"640","-0.012978695652173307","-0.02045782608695637"
"641","-0.02215049999999934","-0.010314500000000138"
"642","-0.01576333333333382","-0.012402222222222845"
"643","-0.010857419354841162","-0.007414516129032341"
"644","-0.044449999999996076","-0.046824444444443794"
"645","-0.007276666666668301","-0.003626666666665853"
"646","-0.012132307692308605","-0.01628999999999983"
"647","-0.012632500000002858","-0.013721249999999538"
"648","-0.02104568627451145","-0.019129019607842874"
"649","-0.013107291666666576","-0.012657708333333165"
"650","-0.021388749999999845","-0.02719875000000016"
"651","-0.010572499999999133","-0.01248958333333361"
"652","-0.01130400000000975","-0.006047999999999121"
"653","-0.0266838461538463","-0.021385384615384757"
"654","-0.015023750000000557","-0.01805156249999995"
"655","-0.014318750000001046","-0.035403750000000844"
"656","-0.002216666666669198","-0.007616666666664902"
"657","-0.005083333333341026","-0.0035200000000005596"
"658","-0.01807749999999686","-0.03030500000000025"
"659","-0.032070000000004484","-0.019939999999998292"
"660","0.0","0.0"
"661","-0.026480833333331805","-0.018290000000000067"
"662","-0.005863999999995428","-0.00547600000000017"
"663","-0.012300000000005085","-0.028494999999999493"
"664","-0.0035675000000026102","-0.008597500000001368"
"665","0.0","0.0"
"666","0.0","0.0"
"667","-0.004938333333335265","-0.007991666666666694"
"668","-0.01818500000000256","-0.006090000000000373"
"669","-0.01687000000000438","-0.008872500000002503"
"670","-0.003949999999999676","-0.021200000000003882"
"671","-0.017075999999999425","-0.01483999999999952"
"672","-0.0038350000000022533","-0.004609999999999559"
"673","-0.011693333333332964","-0.0069433333333339675"
"674","-0.0012759999999971683","-0.007003999999999166"
"675","-0.005206666666667322","-0.006418333333334303"
"676","-0.012224166666667813","-0.00940416666666651"
"677","-0.015872777777779054","-0.018336111111110515"
"678","-0.020595000000001917","-0.03497749999999922"
"679","-0.012675000000005099","-0.0035799999999994725"
"680","-0.011651818181819222","-0.0070490909090908235"
"681","-0.0043850000000009715","-0.005465000000000941"
"682","-0.009887499999999605","-0.0114850000000013"
"683","-0.009820000000000087","-0.01511466666666692"
"684","-0.007068780487804677","-0.01087487804878073"
"685","-0.006593749999999066","-0.006058125000000691"
"686","0.0","0.0"
"687","-0.006319999999996639","-0.0097459999999991"
"688","-0.007318571428572744","-0.012255357142857828"
"689","-0.00791266666666625","-0.010832000000000619"
"690","-0.012009999999998891","-0.011487777777777493"
"691","-0.026611111111115013","-0.04605444444444452"
"692","-0.01347083333333643","-0.0181849999999996"
"693","-0.010206250000000416","-0.010052499999999798"
"694","-0.08445571428571276","-0.10494469387755108"
"695","-0.0102442105263154","-0.01009026315789466"
"696","-0.010660263157894022","-0.011899473684210298"
"697","-0.013954999999999461","-0.014267631578947148"
"698","-0.013197500000001305","-0.008648124999999784"
"699","-0.011159259259260226","-0.008555185185184997"
"700","-0.02795000000000256","-0.019621111111111606"
"701","-0.02488083333333198","-0.02955583333333352"
"702","-0.009879130434782724","-0.016147391304348207"
"703","0.0","0.0"
"704","0.0","0.0"
"705","-0.003930000000003986","-0.0248700000000035"
"706","-0.030139999999995837","-0.12054999999999971"
"707","-0.0060599999999908505","-0.019964999999997346"
"708","-0.03401750000000092","-0.0664674999999999"
"709","-0.007707142857142658","-0.017062857142856252"
"710","-0.004822499999999508","-0.00520750000000092"
"711","-0.008097999999999671","-0.008770000000000522"
"712","0.0","0.0"
"713","-0.023123333333331903","-0.013310000000001784"
"714","-0.036584166666664565","-0.023968333333333963"
"715","-0.04305000000000026","-0.01960629629629604"
"716","-0.009329999999998506","-0.004410000000003578"
"717","-0.0033500000000117325","-0.00521000000000349"
"718","-0.011312857142856205","-0.004492857142857584"
"719","-0.026527500000002924","-0.016277500000000167"
"720","-0.006568333333333361","-0.003866666666666537"
"721","-0.0023714285714296424","-0.007689285714285177"
"722","-0.006751428571428265","-0.004065714285714149"
"723","-0.005004999999999408","-0.006007500000000239"
"724","-0.009577500000001571","-0.01013875000000164"
"725","-0.0053083333333331","-0.00791666666666598"
"726","-0.0058000000000006935","-0.005377499999999813"
"727","-0.014049999999997453","-0.004040000000003374"
"728","-0.006810000000001537","-0.00545500000000132"
"729","-0.009215000000001972","-0.012614999999999377"
"730","-0.008998333333333934","-0.01177555555555602"
"731","-0.006524000000000285","-0.007035999999999376"
"732","-0.007752142857141463","-0.009743571428570772"
"733","-0.011071333333334602","-0.008694000000000557"
"734","-0.011977333333332752","-0.009229333333333518"
"735","-0.00914900000000216","-0.020327000000001406"
"736","-0.011286666666666494","-0.017060555555556474"
"737","-0.008420172413792915","-0.012081206896551617"
"738","-0.009278333333336755","-0.009338333333333892"
"739","-0.004335833333329949","-0.007934166666667094"
"740","-0.12816629629629497","-0.12508518518518552"
"741","-0.00944526315789131","-0.012967894736842192"
"742","-0.010159565217390431","-0.00820347826086994"
"743","-0.010307692307692334","-0.012206153846154148"
"744","-0.011461538461539625","-0.015310769230768418"
"745","-0.015881666666668556","-0.010488999999999749"
"746","-0.020551304347827804","-0.019846956521738936"
"747","-0.002949999999998454","-0.004417142857142612"
"748","-0.0204126923076958","-0.016004230769230895"
"749","-0.009360666666668748","-0.01673800000000014"
"750","-0.03351333333332699","-0.00428666666666544"
"751","0.0","0.0"
"752","-0.017939999999995848","-0.04206999999999539"
"753","-0.012549999999993844","-0.010875000000000412"
"754","0.0","0.0"
"755","-0.0048066666666664775","-0.009614999999998966"
"756","-0.005877272727273402","-0.004649545454543355"
"757","-0.005423749999998506","-0.0060349999999997905"
"758","-0.021320000000017103","-0.012509999999998911"
"759","-0.025469999999999732","-0.01523000000000252"
"760","-0.0031580000000019483","-0.012049999999997141"
"761","-0.0243249999999966","-0.028787500000000854"
"762","-0.004905000000008819","-0.013214999999998867"
"763","-0.0018766666666643061","-0.0034333333333359897"
"764","-0.007630000000002468","-0.005626666666666817"
"765","-0.008263333333332549","-0.009348333333331738"
"766","-0.00879439999999832","-0.009687199999998057"
"767","-0.00845750000000045","-0.013179999999998415"
"768","-0.004624375000000125","-0.011534375000000319"
"769","-0.004698571428571695","-0.0054957142857148256"
"770","-0.005773636363637732","-0.0062827272727290695"
"771","-0.0029128571428610633","-0.005768571428568744"
"772","-0.0038828571428573305","-0.007661428571428327"
"773","-0.009632727272724977","-0.007660909090909097"
"774","-0.0093260000000015","-0.007034000000001583"
"775","-0.017554999999999765","-0.016795000000000115"
"776","-0.010895454545455152","-0.01950818181818257"
"777","-0.00468999999999653","-0.018536666666660057"
"778","-0.008355000000001667","-0.007919999999996818"
"779","-0.002488536585364794","-0.0014243902439025854"
"780","-0.02045857142857293","-0.009897142857142731"
"781","-0.016663333333332513","-0.005924999999997738"
"782","-0.009454374999999793","-0.021106874999999192"
"783","-0.012680000000001104","-0.010764999999999756"
"784","-0.009057272727270577","-0.008306818181818443"
"785","-0.01103833333333526","-0.010124999999998016"
"786","-0.007506500000000216","-0.006280500000000799"
"787","-0.009445945945946112","-0.010107297297296527"
"788","-0.010396538461537173","-0.014663076923076172"
"789","-0.009729117647056954","-0.013912647058823153"
"790","-0.013257750000001779","-0.009338750000000218"
"791","-0.01936872340425445","-0.01841595744680917"
"792","-0.016751590909090328","-0.01647500000000036"
"793","-0.009846874999997368","-0.01970125000000089"
"794","-0.012897000000000011","-0.008693999999999846"
"795","-0.014547857142855796","-0.012290714285713758"
"796","-0.009191785714286535","-0.010862142857142995"
"797","0.0","0.0"
"798","0.0","0.0"
"799","0.0","0.0"
"800","-0.008876666666675229","-0.02601999999999786"
"801","-0.020189999999999486","-0.03675999999999746"
"802","-0.013368333333335128","-0.01915166666666816"
"803","-0.00782869565217272","-0.009825217391305268"
"804","-0.02978000000000236","-0.012323333333332206"
"805","-0.02445333333333129","-0.01577333333332831"
"806","-0.009760833333332256","-0.010620833333333005"
"807","-0.013189999999994484","-0.0027500000000060254"
"808","-0.01646000000001102","-0.028455000000008113"
"809","-0.010190000000001476","-7.899999999949614E-4"
"810","-0.013470000000012305","-0.006860000000003197"
"811","-0.01090500000000342","-0.011501666666666447"
"812","-0.021710000000000916","-0.012135999999999569"
"813","-0.2781552173913035","-0.3758769565217401"
"814","-0.004373076923078346","-0.009706923076923165"
"815","-0.005757500000001192","-0.006395000000000817"
"816","-0.010144999999999627","-0.01282750000000199"
"817","-0.009967499999998353","-0.009227499999999722"
"818","-0.007989999999999498","-0.009551999999997918"
"819","-0.018338333333332457","-0.00886833333333333"
"820","-0.01626888888888879","-0.006011111111108549"
"821","-0.0055025000000039626","-0.002864999999998119"
"822","-0.007615555555554623","-0.013804444444440536"
"823","-0.019880000000000564","-0.019215000000002647"
"824","-0.015257499999997037","-0.01079250000000087"
"825","-0.02044999999999959","-0.026360000000001094"
"826","-0.01049555555555849","-0.007701111111110492"
"827","-0.009692727272727873","-0.009559090909091078"
"828","-0.016737142857142624","-0.013309999999997555"
"829","-0.013880000000001521","-0.01614666666666646"
"830","-0.015759090909090837","-0.008631818181821157"
"831","-0.009867142857138961","-0.015405714285715397"
"832","-0.03484454545454489","-0.2620112727272725"
"833","-0.017296190476189043","-0.014834285714286466"
"834","-0.016452000000001427","-0.01915514285714315"
"835","-0.009578235294117624","-0.011947352941176307"
"836","-0.012026666666666111","-0.012184666666665577"
"837","-0.027029999999999717","-0.0461423809523812"
"838","-0.01978818181818295","-0.036447272727272016"
"839","-0.018546875000000185","-0.017093749999999908"
"840","-0.016689090909087604","-0.012382727272729065"
"841","-0.0220324999999999","-0.007580000000000808"
"842","-0.006601500000000727","-0.009706999999999511"
"843","-0.014752000000004272","-0.0073999999999969646"
"844","0.0","0.0"
"845","0.0","0.0"
"846","0.0","0.0"
"847","-0.0034700000000071896","-0.026090000000010605"
"848","0.0","0.0"
"849","0.0","0.0"
"850","0.0","0.0"
"851","-0.00748750000000209","-0.014942499999998304"
"852","-0.020420555555554405","-0.013239999999998118"
"853","-0.009904285714285572","-0.010455714285713822"
"854","-0.009072499999998485","-0.0371449999999971"
"855","-0.01757500000000256","-0.044505000000000905"
"856","-0.024006666666668508","-0.021316666666663764"
"857","-0.01871666666666627","-0.015716666666664974"
"858","-0.01759999999999451","-0.041967500000001934"
"859","-0.023914285714285808","-0.019281428571428956"
"860","-0.014512000000001043","-0.01624799999999927"
"861","-0.00989954545454533","-0.00658272727272837"
"862","-0.0117715789473678","-0.009887368421052289"
"863","-0.006188888888889071","-0.008865555555555855"
"864","-0.006801666666665558","-0.006051666666667899"
"865","-0.006896666666668476","-0.008720000000002651"
"866","-0.009847894736841948","-0.012011578947366942"
"867","-0.007996666666667492","-0.011676666666665546"
"868","-0.009879999999999","-0.01022000000000034"
"869","-0.009896666666663853","-0.007236666666666262"
"870","-0.006903846153844138","-0.011333076923076665"
"871","-0.011150000000002238","-0.01025444444444585"
"872","-0.005620000000003067","-0.013239999999998808"
"873","-0.009403333333332617","-0.01827499999999797"
"874","-0.01076857142856978","-0.01652142857142788"
"875","-0.007320000000002362","-0.01115000000000066"
"876","-0.011286842105263872","-0.008208947368420488"
"877","-0.011141818181818182","-0.008478181818182535"
"878","-0.010809166666668682","-0.006944166666665197"
"879","-0.015060000000009666","-0.025947999999998927"
"880","-0.018670000000002275","-0.025184411764705733"
"881","-0.014119999999997883","-0.012132000000000668"
"882","-0.021164000000001692","-0.01913666666666671"
"883","-0.026193333333329367","-0.026026666666666642"
"884","-0.021755454545456132","-0.07731090909090713"
"885","-0.022794705882350788","-0.06112"
"886","-0.009854666666664494","-0.010010666666666168"
"887","-0.016840000000001416","-0.009146923076923595"
"888","-0.00977900000000247","-0.005364499999999594"
"889","-0.0032899999999926877","-7.800000000059981E-4"
"890","-0.006439090909089693","-0.006148181818181927"
"891","0.0","0.0"
"892","0.0","0.0"
"893","0.0","0.0"
"894","-0.00825599999999751","-0.0168200000000013"
"895","0.0","0.0"
"896","0.0","0.0"
"897","-0.016585000000000072","-0.009344999999999715"
"898","-0.005255000000000602","-0.008936666666667037"
"899","-0.004050000000006548","-0.0017400000000051818"
"900","-0.009479999999999045","-0.007060000000002731"
"901","0.0","0.0"
"902","0.0","0.0"
"903","-0.020530000000003667","-0.015689999999999316"
"904","-0.0076837500000066505","-0.009327499999999489"
"905","-0.006407999999997927","-0.009213999999999344"
"906","-0.00771799999999061","-0.0037099999999981037"
"907","-0.007046923076922477","-0.005490769230770153"
"908","-0.010945555555555665","-0.01360055555555443"
"909","-0.009770392156862831","-0.011227647058822225"
"910","-0.0062074074074089935","-0.009626296296297533"
"911","-0.005269999999998258","-0.0023766666666702463"
"912","-0.008771666666667954","-0.011793333333332138"
"913","-0.007443333333334579","-0.011116250000000013"
"914","-0.007235909090911783","-0.016388636363637167"
"915","-0.011749999999999261","-0.012255000000003236"
"916","-0.014346666666666705","-0.013194444444446654"
"917","-0.014665999999999712","-0.01882200000000154"
"918","-0.015258750000000987","-0.02139374999999699"
"919","-0.008619999999998148","-0.00970000000000463"
"920","-0.0046650000000010294","-0.014427500000000038"
"921","-0.00852300000000028","-0.014132000000000033"
"922","-0.002249999999998901","-0.014863333333333154"
"923","-0.013335555555555977","-0.006416666666663357"
"924","-0.009417499999996082","-0.009782500000000027"
"925","-0.007216363636364969","-0.00522545454545309"
"926","-0.010316999999999155","-0.01051850000000094"
"927","-0.011162352941176871","-0.012028823529412173"
"928","-0.014026976744185776","-0.012960930232558733"
"929","-0.012834210526316513","-0.011500175438596858"
"930","-0.024493750000000425","-0.021959999999998647"
"931","-0.012455833333330446","-0.010369999999998214"
"932","-0.017052857142855617","-0.012557142857145567"
"933","-0.006891538461537458","-0.0069153846153829825"
"934","-0.012768750000001994","-0.014106249999999765"
"935","-0.008908749999999799","-0.006526250000000289"
"936","-0.010905999999997107","-0.007275999999999764"
"937","-0.007219090909091816","-0.010625454545453423"
"938","0.0","0.0"
"939","0.0","0.0"
"940","0.0","0.0"
"941","0.0","0.0"
"942","-0.0042625000000029445","-0.006512500000001253"
"943","-0.013856666666667294","-0.00833333333333286"
"944","-0.007189999999999941","-0.005235999999999308"
"945","0.0","0.0"
"946","-0.01088000000000496","-0.01212333333333504"
"947","-0.019234999999998337","-0.024717499999999504"
"948","-0.0023900000000018906","-0.02418999999999727"
"949","-0.0077149999999956975","-0.0049999999999954525"
"950","-0.01364799999999775","-0.01897599999999926"
"951","-0.025216999999999247","-0.017898999999999176"
"952","-0.006529999999999957","-0.012852857142856269"
"953","-0.010397272727273784","-0.007803636363636134"
"954","-0.007882222222226195","-0.005284444444445708"
"955","-0.01959333333332817","-0.016096666666669535"
"956","-0.011167777777775396","-0.009548888888886609"
"957","-0.005972413793101535","-0.005111724137931568"
"958","-0.006354999999997446","-0.005175000000001262"
"959","-0.013144285714284974","-0.0113828571428566"
"960","-0.006421250000001155","-0.00784437500000168"
"961","-0.00433333333333034","-0.021246666666672336"
"962","-0.0021100000000018326","-0.021317500000000322"
"963","-0.017615000000006376","-0.028734999999997513"
"964","-0.008473333333334665","-0.012149999999998329"
"965","-0.01792000000000371","-0.002539999999996212"
"966","-0.013605000000008971","-0.02021999999999835"
"967","-0.0017450000000032162","-0.01512500000000827"
"968","-0.006933999999998264","-0.009517999999997074"
"969","-0.007765000000002686","-0.009215000000001083"
"970","-0.014103333333333504","-0.007823333333336771"
"971","-0.015886000000001843","-0.007699999999999818"
"972","-0.012980999999997068","-0.015459999999999497"
"973","-0.012025882352938144","-0.007530000000000194"
"974","-0.01864718750000227","-0.012795000000000112"
"975","-0.01612433333333598","-0.016542333333333423"
"976","-0.024741200000001413","-0.012125999999999238"
"977","-0.016496842105263903","-0.010793684210526067"
"978","-0.005589999999983775","-0.002369999999999095"
"979","-0.007192800000001398","-0.01201880000000017"
"980","-0.006142608695649474","-0.009946956521741003"
"981","-0.010857999999999493","-0.01419600000000031"
"982","-0.012443000000001092","-0.017491000000000055"
"983","-0.008960256410255796","-0.014505384615383412"
"984","-0.004033333333334592","-0.006816666666667952"
"985","0.0","0.0"
"986","0.0","0.0"
"987","0.0","0.0"
"988","-0.005530000000000257","-0.010050000000006776"
"989","-0.0034399999999992657","-0.008128000000000668"
"990","-0.004684999999998496","-0.013844999999999885"
"991","-0.01108500000000845","-0.004160000000005937"
"992","-1.8999999998925432E-4","-0.002719999999996503"
"993","-0.006140000000002033","-0.0038000000000053547"
"994","-0.024697142857139705","-0.01337714285714396"
"995","-0.012680000000000765","-0.011966666666666015"
"996","-0.011831428571429317","-0.031150000000001756"
"997","-0.004780000000004374","-0.005491666666667783"
"998","-0.0036924999999992103","-0.00967374999999926"
"999","-0.007321764705881443","-0.005124705882353286"
"1000","-0.006403333333333489","-0.0047050000000012915"
"1001","-0.007814499999999391","-0.0076459999999993755"
"1002","-0.016480000000004935","-0.007219999999989568"
"1003","-0.008469999999997905","-0.01093666666666356"
"1004","0.0","0.0"
"1005","-0.002214999999996081","-0.006650000000004042"
"1006","-0.00842400000000083","-0.03411799999999658"
"1007","-0.003532500000002159","-0.013167499999999777"
"1008","-0.006707272727273955","-0.012714545454543404"
"1009","0.0","0.0"
"1010","0.0","0.0"
"1011","-0.00669000000000608","-0.0025100000000009004"
"1012","-0.012334999999996654","-0.005829999999996005"
"1013","-0.019204999999999472","-0.025950000000001694"
"1014","-0.02253999999999934","-0.04413000000000977"
"1015","-0.009435000000001045","-0.009858333333336114"
"1016","-0.01407666666666311","-0.004339999999999122"
"1017","-0.008979999999993993","-0.018750000000004263"
"1018","0.0","0.0"
"1019","-0.001999999999981128","-0.016859999999994102"
"1020","-0.017434999999991874","-0.008645000000008451"
"1021","-0.012131304347826204","-0.01663782608695579"
"1022","-0.010610909090913041","-0.009998181818181835"
"1023","-0.01817250000000037","-0.02259249999999824"
"1024","-0.012105000000000624","-0.006200000000000945"
"1025","-0.006027142857143579","-0.011422857142857115"
"1026","-0.009202500000000668","-0.015395833333334016"
"1027","-0.006715384615385635","-0.013844615384616513"
"1028","-0.012066000000000087","-0.017066000000000515"
"1029","-0.014664193548385595","-0.025919354838710124"
"1030","-0.02212499999999551","-0.022086250000000973"
"1031","0.0","0.0"
"1032","0.0","0.0"
"1033","0.0","0.0"
"1034","0.0","0.0"
"1035","0.0","0.0"
"1036","-0.005981250000000715","-0.01349249999999902"
"1037","-0.0061280000000010215","-0.005531499999999667"
"1038","-0.0064799999999962665","-0.00853000000000037"
"1039","0.0","0.0"
"1040","-0.013554999999999096","-0.006773749999998024"
"1041","-0.008607999999998128","-0.006991000000000014"
"1042","-0.012026249999999905","-0.018157500000000937"
"1043","-0.01325916666666771","-0.016192499999998944"
"1044","-0.0055018749999957706","-0.003142500000000936"
"1045","-0.009656666666667016","-0.005559999999997937"
"1046","0.0","0.0"
"1047","0.0","0.0"
"1048","0.0","0.0"
"1049","0.0","0.0"
"1050","-0.001300000000000523","-0.0035399999999938814"
"1051","0.0","0.0"
"1052","-0.012139999999999892","-0.016946666666668147"
"1053","-0.021046666666660958","-0.028866666666668078"
"1054","-0.009036000000003241","-0.013751999999998077"
"1055","-0.014705999999999619","-0.008079999999998222"
"1056","-0.012784999999997382","-0.019684999999999064"
"1057","-0.014005000000004486","-0.005439999999996559"
"1058","0.0","0.0"
"1059","-0.0021999999999948727","-0.002869999999994377"
"1060","0.0","0.0"
"1061","0.0","0.0"
"1062","-0.006106666666667593","-0.013679999999998435"
"1063","-0.010480000000001155","-0.010890000000003397"
"1064","-0.008990000000004272","-0.010089999999998156"
"1065","0.0","0.0"
"1066","0.0","0.0"
"1067","0.0","0.0"
"1068","0.0","0.0"
"1069","0.0","0.0"
"1070","0.0","0.0"
"1071","0.0","0.0"
"1072","0.0","0.0"
"1073","0.0","0.0"
"1074","-0.03137000000000256","-0.038730000000004594"
"1075","-0.02112750000000929","-0.020750000000003155"
"1076","0.0","0.0"
"1077","0.0","0.0"
"1078","0.0","0.0"
"1079","0.0","0.0"
"1080","0.0","0.0"
"1081","0.0","0.0"
"1082","0.0","0.0"
"1083","-0.01349750000000253","-0.01053666666666686"
"1084","-0.005417586206896225","-0.007572758620690737"
"1085","-0.008062631578947483","-0.011110263157894562"
"1086","-0.013391818181818105","-0.015210909090909426"
"1087","-0.027946666666666342","-0.01126250000000025"
"1088","-0.004752499999999937","-0.006792500000001311"
"1089","-0.005137500000000017","-0.0035025000000015183"
"1090","-0.017863529411763866","-0.011417058823529991"
"1091","-0.006606666666667217","-0.013008888888889045"
"1092","-0.007497058823529285","-0.007348823529412548"
"1093","-0.012202105263158177","-0.007943157894736805"
"1094","-0.008089999999995712","-0.01332000000000022"
"1095","-0.010369999999999399","-0.009033333333334781"
"1096","-0.006649999999999305","-0.008850000000002467"
"1097","-0.009138000000001511","-0.011253999999999565"
"1098","-0.009165555555553971","-0.019731111111111786"
"1099","-0.010789999999999531","-0.01647692307692184"
"1100","0.0","0.0"
"1101","-0.028290000000005477","-7.70000000002824E-4"
"1102","0.0","0.0"
"1103","-0.0010900000000049204","-0.005770000000005382"
"1104","0.0","0.0"
"1105","0.0","0.0"
"1106","-0.007190000000004915","-0.01673500000000061"
"1107","-0.05180999999998903","-0.0390599999999921"
"1108","0.0","0.0"
"1109","0.0","0.0"
"1110","0.0","0.0"
"1111","0.0","0.0"
"1112","0.0","0.0"
"1113","0.0","0.0"
"1114","0.0","0.0"
"1115","0.0","0.0"
"1116","0.0","0.0"
"1117","0.0","0.0"
"1118","0.0","0.0"
"1119","0.0","0.0"
"1120","0.0","0.0"
"1121","0.0","0.0"
"1122","0.0","0.0"
"1123","0.0","0.0"
"1124","0.0","0.0"
"1125","0.0","0.0"
"1126","0.0","0.0"
"1127","0.0","0.0"
"1128","0.0","0.0"
"1129","0.0","0.0"
"1130","0.0","0.0"
"1131","0.0","0.0"
"1132","-0.007480937500000062","-0.00524187499999984"
"1133","0.0","0.0"
"1134","0.0","0.0"
"1135","0.0","0.0"
"1136","0.0","0.0"
"1137","0.0","0.0"
"1138","0.0","0.0"
"1139","0.0","0.0"
"1140","0.0","0.0"
"1141","0.0","0.0"
"1142","0.0","0.0"
"1143","0.0","0.0"
"1144","0.0","0.0"
"1145","0.0","0.0"
"1146","0.0","0.0"
"1147","0.0","0.0"
"1148","0.0","0.0"
"1149","0.0","0.0"
"1150","0.0","0.0"
"1151","0.0","0.0"
"1152","0.0","0.0"
"1153","0.0","0.0"
"1154","0.0","0.0"
"1155","0.0","0.0"
"1156","0.0","0.0"
"1157","0.0","0.0"
"1158","0.0","0.0"
"1159","0.0","0.0"
"1160","0.0","0.0"
"1161","0.0","0.0"
"1162","0.0","0.0"
"1163","0.0","0.0"
"1164","0.0","0.0"
"1165","0.0","0.0"
"1166","0.0","0.0"
"1167","0.0","0.0"
"1168","0.0","0.0"
"1169","0.0","0.0"
"1170","0.0","0.0"
"1171","0.0","0.0"
"1172","0.0","0.0"
"1173","0.0","0.0"
"1174","0.0","0.0"
