"cell_id","acc_x","acc_y"
"0","0.0","0.0"
"1","0.0","0.0"
"2","0.0","0.0"
"3","0.0","0.0"
"4","0.0","0.0"
"5","0.0","0.0"
"6","0.0","0.0"
"7","0.0","0.0"
"8","0.0","0.0"
"9","0.0","0.0"
"10","0.0","0.0"
"11","0.0","0.0"
"12","0.0","0.0"
"13","0.0","0.0"
"14","0.0","0.0"
"15","0.0","0.0"
"16","0.0","0.0"
"17","0.0","0.0"
"18","0.0","0.0"
"19","0.0","0.0"
"20","0.0","0.0"
"21","0.0","0.0"
"22","0.0","0.0"
"23","0.0","0.0"
"24","0.0","0.0"
"25","0.0","0.0"
"26","0.0","0.0"
"27","0.0","0.0"
"28","0.0","0.0"
"29","0.0","0.0"
"30","0.0","0.0"
"31","0.0","0.0"
"32","0.0","0.0"
"33","0.0","0.0"
"34","-0.0025100000000009004","0.0052649999999999746"
"35","-0.004401111111110683","0.009918888888888885"
"36","0.0","0.0"
"37","0.0","0.0"
"38","0.0","0.0"
"39","0.0","0.0"
"40","0.0","0.0"
"41","0.0","0.0"
"42","0.0","0.0"
"43","-0.017915000000002124","0.018015000000000003"
"44","0.0","0.0"
"45","0.0","0.0"
"46","0.0","0.0"
"47","0.0","0.0"
"48","0.0","0.0"
"49","0.0","0.0"
"50","-8.799999999915542E-4","0.010407500000000125"
"51","0.0","0.0"
"52","0.0","0.0"
"53","0.0","0.0"
"54","0.0","0.0"
"55","0.0","0.0"
"56","0.0","0.0"
"57","0.0","0.0"
"58","0.0","0.0"
"59","0.0","0.0"
"60","0.0","0.0"
"61","0.0","0.0"
"62","0.0","0.0"
"63","0.0","0.0"
"64","0.0","0.0"
"65","0.0","0.0"
"66","0.0","0.0"
"67","0.0","0.0"
"68","0.0","0.0"
"69","0.0","0.0"
"70","0.0","0.0"
"71","0.0","0.0"
"72","-0.0573400000000035","0.05809000000000042"
"73","-0.0301790909090914","0.04696272727272724"
"74","0.0","0.0"
"75","0.0","0.0"
"76","0.0","0.0"
"77","0.0","0.0"
"78","0.0","0.0"
"79","0.0","0.0"
"80","0.0","0.0"
"81","0.0","0.0"
"82","-0.0031466666666754386","0.005126666666666724"
"83","0.0","0.0"
"84","0.0","0.0"
"85","0.0","0.0"
"86","-0.0019500000000007844","0.008790000000000076"
"87","-0.017625000000002444","0.007424999999999904"
"88","0.0","0.0"
"89","0.0","0.0"
"90","0.0","0.0"
"91","-0.04138000000001796","0.004269999999999552"
"92","-0.02063999999999311","0.03867499999999957"
"93","-0.010735454545456042","0.01633954545454539"
"94","0.0","0.0"
"95","0.0","0.0"
"96","0.0","0.0"
"97","-0.00920416666666668","0.022025833333333338"
"98","-0.04468499999999809","0.026292499999999608"
"99","-0.016333999999999804","0.017452000000000113"
"100","-0.004432000000000436","0.00468699999999993"
"101","-0.004908999999999608","0.01236499999999996"
"102","0.0","0.0"
"103","0.0","0.0"
"104","0.0","0.0"
"105","0.0","0.0"
"106","0.0","0.0"
"107","0.0","0.0"
"108","0.0","0.0"
"109","0.0","0.0"
"110","0.0","0.0"
"111","0.0","0.0"
"112","0.0","0.0"
"113","0.0","0.0"
"114","0.0","0.0"
"115","0.0","0.0"
"116","0.0","0.0"
"117","0.0","0.0"
"118","0.0","0.0"
"119","-0.021940000000003106","0.04255333333333352"
"120","0.0","0.0"
"121","-0.029886666666669726","0.054539999999999665"
"122","-9.300000000038722E-4","0.02579999999999938"
"123","0.0","0.0"
"124","0.0","0.0"
"125","0.0","0.0"
"126","0.0","0.0"
"127","0.0","0.0"
"128","0.0","0.0"
"129","-2.599999999972624E-4","0.002189999999999692"
"130","-0.005005000000000592","0.005372500000000446"
"131","-0.0028500000000065027","0.007116000000000078"
"132","-0.012864999999997906","0.011607499999999549"
"133","-0.013980000000003656","0.011109999999999953"
"134","0.0","0.0"
"135","0.0","0.0"
"136","0.0","0.0"
"137","0.0","0.0"
"138","-0.004693333333335659","0.004563333333333179"
"139","-0.032749999999985846","0.04572499999999957"
"140","-1.4496321428571446","0.03121928571428567"
"141","0.0","0.0"
"142","0.0","0.0"
"143","0.0","0.0"
"144","-0.011591999999998848","0.0263220000000004"
"145","-0.011560000000017112","0.05877999999999961"
"146","-0.010367272727272498","0.01450727272727284"
"147","-0.021384000000006155","0.009840000000000338"
"148","-0.009308888888888391","0.013847777777777855"
"149","-0.07557999999999865","0.009590000000001098"
"150","-0.003248333333329967","0.01539500000000027"
"151","-0.01911200000000335","0.01738199999999992"
"152","-0.01861000000000009","0.05087000000000034"
"153","0.0","0.0"
"154","0.0","0.0"
"155","0.0","0.0"
"156","0.0","0.0"
"157","0.0","0.0"
"158","0.0","0.0"
"159","0.0","0.0"
"160","0.0","0.0"
"161","0.0","0.0"
"162","0.0","0.0"
"163","0.0","0.0"
"164","0.0","0.0"
"165","0.0","0.0"
"166","-0.019359999999998934","0.010479999999999823"
"167","0.0","0.0"
"168","0.0","0.0"
"169","-0.007380000000004827","0.0552400000000004"
"170","-0.024695000000001244","9.049999999999336E-4"
"171","0.0","0.0"
"172","0.0","0.0"
"173","0.0","0.0"
"174","-0.006570000000010623","0.003070000000000128"
"175","0.0","0.0"
"176","-0.03847999999997853","0.007599999999999163"
"177","0.0","0.0"
"178","-0.011182500000000317","0.01679333333333351"
"179","-0.012235000000007545","0.017082500000000556"
"180","-0.011920000000008221","0.010903333333332968"
"181","0.0","0.0"
"182","0.0","0.0"
"183","-0.02786999999999888","0.0341533333333337"
"184","0.0","0.0"
"185","-0.001860000000000639","0.004850000000000687"
"186","-0.05333666666667369","0.06114666666666668"
"187","-0.37405304347826057","0.8038969565217393"
"188","0.0","0.0"
"189","0.0","0.0"
"190","0.0","0.0"
"191","-0.008979999999996954","0.015538888888889189"
"192","-0.005056249999999651","0.00739000000000023"
"193","-0.015711428571429358","0.0209228571428568"
"194","-0.012707142857142426","0.015010000000000443"
"195","-0.012158999999999942","0.018884999999999773"
"196","-0.020273333333332033","0.01879250000000014"
"197","-0.01749571428571122","0.022635714285714568"
"198","-0.00888086956521699","0.010106956521738961"
"199","-0.009799090909094265","0.007310000000000533"
"200","-0.01567999999999614","0.02942000000000089"
"201","-0.04878000000000071","0.03080499999999997"
"202","0.0","0.0"
"203","-0.010079999999994982","0.016790000000000305"
"204","-0.030879999999996244","0.043260000000000076"
"205","-0.004144999999997623","0.005265000000000519"
"206","-0.006540000000008206","0.019280000000000186"
"207","-0.004950000000000898","0.013300000000000978"
"208","-0.007014999999999105","0.005349999999999078"
"209","-0.009660000000000224","0.008384999999999643"
"210","0.0","0.0"
"211","0.0","0.0"
"212","-0.008549999999992508","0.013310000000000599"
"213","0.0","0.0"
"214","0.0","0.0"
"215","0.0","0.0"
"216","0.0","0.0"
"217","0.0","0.0"
"218","-0.005903333333333667","0.008909999999999899"
"219","-0.010089999999998156","0.01217999999999897"
"220","-0.03151999999999333","0.010390000000002786"
"221","0.0","0.0"
"222","-0.022956666666663256","0.017577777777778063"
"223","-0.005349999999985755","0.009635000000000282"
"224","-3.400000000226555E-4","0.01191000000000031"
"225","-0.02056999999999694","0.013461666666666853"
"226","-0.015460833333336884","0.011402499999999835"
"227","-0.009218571428572122","0.005258571428571303"
"228","-0.02454777777777571","0.016832222222221818"
"229","-0.024260000000002908","0.03880000000000017"
"230","-0.015071333333333806","0.021249333333333276"
"231","-0.0018599999999935335","0.006630000000001246"
"232","-0.007626666666662156","0.008466666666666475"
"233","-0.008474999999990018","0.04100999999999999"
"234","-0.013073999999999348","0.01648800000000031"
"235","0.0","0.0"
"236","0.0","0.0"
"237","-0.01632250000000035","0.013198750000000592"
"238","-0.01825000000000015","0.01765117647058812"
"239","-0.020099999999999785","0.03672583333333327"
"240","-0.027363750000000353","0.035985000000000156"
"241","-0.0129049999999995","0.012210000000000498"
"242","-0.02382750000000322","0.019813750000000407"
"243","-0.025590000000001528","0.021259999999999835"
"244","-0.016632222222219814","0.026834444444444827"
"245","-0.008940000000001192","0.009402000000000044"
"246","-0.03383444444444055","0.02388333333333274"
"247","-0.03882833333333598","0.04365499999999992"
"248","-0.013501666666665338","0.02903500000000007"
"249","-0.020646363636363286","0.024279090909091104"
"250","0.0","0.0"
"251","0.0","0.0"
"252","0.0","0.0"
"253","0.0","0.0"
"254","0.0","0.0"
"255","0.0","0.0"
"256","-0.009899999999998244","0.004755000000000287"
"257","-0.004440000000002442","0.001980000000001425"
"258","0.0","0.0"
"259","-0.01693599999999975","0.008791999999999333"
"260","-0.008630833333333735","0.004431666666666612"
"261","0.0","0.0"
"262","0.0","0.0"
"263","-0.003200000000006753","0.009309999999999263"
"264","0.0","0.0"
"265","0.0","0.0"
"266","0.0","0.0"
"267","-0.017245999999988725","0.008215999999999469"
"268","-0.004339999999999122","0.004100000000001103"
"269","-0.009770000000003165","0.004185000000000549"
"270","-0.02235000000000298","0.013756666666666195"
"271","-0.02173800000000057","0.007711999999999541"
"272","-0.011216874999995241","0.016603749999999917"
"273","-0.01698133333333563","0.022450666666666782"
"274","-0.022056363636366427","0.015222727272726999"
"275","-0.01486399999999719","0.01892399999999963"
"276","-0.006552857142858264","0.011380000000000072"
"277","-0.010688571428573823","0.022322857142857342"
"278","0.0","0.0"
"279","-0.013365000000000293","0.00277499999999975"
"280","-0.018120000000005614","0.0074300000000005655"
"281","0.0","0.0"
"282","0.0","0.0"
"283","0.0","0.0"
"284","-0.01878611111111102","0.013090833333333496"
"285","-0.02451291666666644","0.015518124999999902"
"286","-0.022265555555555688","0.025472777777777802"
"287","-0.01896558823529393","0.022006176470588244"
"288","-0.015538157894737793","0.015857631578947255"
"289","-0.016889374999997653","0.015158124999999467"
"290","-0.016552666666665772","0.0228286666666668"
"291","-0.011899999999999503","0.017668333333333643"
"292","-0.012094374999999324","0.014063125000000065"
"293","-0.022032499999999455","0.020886249999999995"
"294","-0.026824285714286793","0.02120464285714282"
"295","-0.022313333333332963","0.018381111111110984"
"296","-0.018203333333341714","0.01449333333333295"
"297","-0.011056666666667306","0.026180000000000685"
"298","-0.014857999999999549","0.013236000000000202"
"299","-0.012990000000000279","0.01212249999999937"
"300","-0.017909999999998167","0.026933333333333326"
"301","-0.002020000000001687","0.0025599999999990075"
"302","-0.005110000000001946","0.004070000000000462"
"303","-0.015499999999997627","0.018420000000000325"
"304","0.0","0.0"
"305","-0.007579999999997256","0.006030000000000868"
"306","0.0","0.0"
"307","-0.0010200000000040177","0.014709999999999113"
"308","0.0","0.0"
"309","-0.009200000000003428","0.0018000000000002458"
"310","-0.010764999999999247","0.003944999999999865"
"311","-0.004955000000002485","7.450000000002177E-4"
"312","-0.009520000000005524","0.0018799999999989936"
"313","-0.015122500000003924","0.0031199999999991235"
"314","-0.02050142857142439","0.005964285714285518"
"315","-0.005942000000001712","0.013892000000000949"
"316","-0.013719999999996244","0.02251714285714357"
"317","-0.007659999999995648","0.006721999999999539"
"318","-0.004127500000002726","0.00720500000000035"
"319","-0.02450200000000109","0.019994000000000157"
"320","-0.010698421052635498","0.012881052631579144"
"321","-0.028046250000002715","0.018370000000000664"
"322","-0.00821222222222199","0.010776666666666854"
"323","-0.01384857142857194","0.02482000000000057"
"324","-0.0137571428571448","0.016207142857142896"
"325","-0.007095000000006735","0.027794999999999348"
"326","0.0","0.0"
"327","0.0","0.0"
"328","0.0","0.0"
"329","0.0","0.0"
"330","0.0","0.0"
"331","0.0","0.0"
"332","-0.030951250000000208","0.022063749999999827"
"333","-0.0241862499999983","0.03480500000000064"
"334","-0.02278000000000106","0.0167808333333328"
"335","-0.01887187499999926","0.032165000000000166"
"336","-0.01720642857142916","0.02345142857142874"
"337","-0.01814959999999999","0.018985600000000033"
"338","-0.01789128205128366","0.02362641025641037"
"339","-0.010488857142858774","0.011847142857142856"
"340","-0.02050633333333328","0.025997000000000034"
"341","-0.02404249999999856","0.023481249999999898"
"342","-0.017014583333332684","0.025721666666666716"
"343","-0.03240214285714238","0.021772857142856594"
"344","-0.012419999999999654","0.01756999999999964"
"345","-0.017480000000006157","0.004679999999998685"
"346","-0.016805000000001513","0.015310000000000379"
"347","-0.005976000000002557","0.00994199999999985"
"348","-0.00901249999999898","0.007552499999999629"
"349","-0.011775000000000091","0.004980000000000651"
"350","-0.00694999999999979","0.005740000000001189"
"351","-0.020939999999995962","0.019590000000000884"
"352","0.0","0.0"
"353","-0.00269999999999726","0.006504999999999761"
"354","-0.0010325000000026563","0.010219999999999452"
"355","-0.00840199999999811","0.005065999999999704"
"356","0.0","0.0"
"357","-0.02886999999999773","0.018639999999999546"
"358","-0.009690000000002641","0.01750500000000077"
"359","-0.007522857142856562","0.010182857142856858"
"360","-0.004962500000001313","0.009710000000000996"
"361","-0.007067999999998164","0.004725999999999786"
"362","-0.010517499999998847","0.008590000000000764"
"363","-0.008035000000001938","0.010013333333332616"
"364","-0.03391999999999484","0.03377999999999837"
"365","-0.03597666666666536","0.019293333333333013"
"366","-0.013992380952381771","0.009743809523809452"
"367","-0.01799421052631613","0.02607842105263215"
"368","-0.014906666666661295","0.02903000000000115"
"369","-0.006223749999998418","0.007891249999999905"
"370","-0.00964586206896701","0.010362068965517226"
"371","-0.015426923076922514","0.025253846153846328"
"372","-0.008688333333331855","0.011146666666667452"
"373","-0.0158166666666754","0.03917666666666797"
"374","-0.1384949999999847","0.00740499999999944"
"375","0.0","0.0"
"376","0.0","0.0"
"377","0.0","0.0"
"378","-0.006653333333333104","0.021459999999999962"
"379","-0.009176666666662392","0.028836666666669213"
"380","-0.011594000000000904","0.02173999999999919"
"381","-0.011642456140351467","0.010473859649122636"
"382","-0.02076214285714257","0.020281071428572224"
"383","-0.014860740740739805","0.020399629629629205"
"384","-0.015466976744186824","0.016646744186046083"
"385","-0.13807522727272623","0.16696090909090963"
"386","-0.016008000000000706","0.022129000000000117"
"387","-0.01379999999999956","0.013559642857143015"
"388","-0.016202413793102843","0.01713206896551709"
"389","-0.021504897959185802","0.02211816326530613"
"390","-0.012489523809524087","0.01173952380952389"
"391","-0.01483538461538513","0.015353846153846171"
"392","-0.01797857142857216","0.017543571428570864"
"393","-0.013870999999999611","0.017448499999999888"
"394","-0.01471071428571388","0.02133571428571379"
"395","-0.00569428571428635","0.010954285714286678"
"396","-0.00772999999999919","0.013597142857142228"
"397","-0.01484857142857164","0.015265714285712915"
"398","-0.009904999999998942","0.0073224999999994544"
"399","-0.012621249999998696","0.01225625000000008"
"400","-0.007143076923074869","0.006579230769230384"
"401","-0.008160000000000167","0.015595000000002024"
"402","-0.0045479999999997744","0.004415999999998377"
"403","-0.00791999999999924","0.008709090909090637"
"404","-0.006450000000003797","0.0073440000000005055"
"405","-0.007512499999993594","0.004027499999998518"
"406","-0.004599999999997963","0.007859999999999681"
"407","-0.005866000000000327","0.0048540000000002696"
"408","-0.010267142857146487","0.02397857142857061"
"409","-0.004995714285712438","0.013910000000000216"
"410","-0.008136666666667717","0.009206666666668658"
"411","-0.009440000000000478","0.010989999999999127"
"412","-0.006005352112677182","0.008276619718309914"
"413","-0.761266551724137","0.035197586206896524"
"414","-0.14570363636363784","0.09601636363636343"
"415","-0.011321111111112399","0.015795555555556007"
"416","-0.01643130434782437","0.011197391304347309"
"417","-0.022574918032788105","0.023759999999999833"
"418","-0.023794999999997936","0.01780413043478256"
"419","-0.038401032258064835","0.09719870967741903"
"420","-0.008076470588236743","0.005618235294116862"
"421","0.0","0.0"
"422","-0.00937999999999306","0.0035799999999994725"
"423","0.0","0.0"
"424","0.0","0.0"
"425","-0.0024700000000007862","0.021533333333333477"
"426","-0.07704999999999815","0.06391999999999985"
"427","-0.08630333333333473","0.07650166666666654"
"428","-0.02713166666666685","0.03658250000000063"
"429","-0.0199773684210525","0.025912631578947486"
"430","-0.025086190476191123","0.03273714285714239"
"431","-0.027769333333333594","0.01777066666666644"
"432","-0.013866250000000857","0.01636750000000046"
"433","-0.017242222222221906","0.018584444444444632"
"434","-0.026301153846154","0.01871230769230737"
"435","-0.017523999999997954","0.018088000000000052"
"436","-0.011078644067797142","0.010233220338983131"
"437","-0.014811612903228293","0.02071387096774193"
"438","-0.014512380952382217","0.023016190476189382"
"439","-0.008792333333333128","0.018383000000000156"
"440","-0.008272857142857097","0.0183085714285721"
"441","-0.013598333333334267","0.019653333333333595"
"442","-0.006898333333335671","0.01383333333333366"
"443","-0.013757000000001084","0.009454000000000917"
"444","-0.011544999999996955","0.0066416666666651025"
"445","-0.006691249999997595","0.0059600000000008535"
"446","-0.017807500000001752","0.00781749999999981"
"447","-0.025430000000000064","0.028259999999999508"
"448","-0.005956000000001893","0.009296000000000504"
"449","-0.009811249999999383","0.010257500000000253"
"450","-0.005079999999999529","0.0041944444444439455"
"451","0.0","0.0"
"452","-0.01051249999999726","0.00406249999999897"
"453","-0.002824999999997857","3.700000000002035E-4"
"454","-0.01223142857143143","0.006359999999999287"
"455","-0.01569999999999926","0.006047272727272457"
"456","-0.006908235294124452","0.008098823529411114"
"457","-0.007853500000004487","0.012421000000000505"
"458","-0.025858571428572525","0.0216007142857134"
"459","-0.01336666666666749","0.018808333333332723"
"460","-0.01231071428571355","0.0163740476190476"
"461","-0.006919090909094775","0.010669090909092011"
"462","-0.009383200000002603","0.007336400000000367"
"463","-0.023159599999999614","0.029666799999999965"
"464","-0.0250150000000005","0.03564199999999952"
"465","-0.02589203703703586","0.023362962962963515"
"466","-0.03387986842105156","0.012867631578946997"
"467","-0.01189874999999807","0.014942499999999748"
"468","-0.013703243243243934","0.013597837837837527"
"469","-0.016105000000003145","0.020314999999998307"
"470","0.0","0.0"
"471","0.0","0.0"
"472","-0.047049090909089646","0.02693454545454508"
"473","-0.013707499999996209","0.025912500000001337"
"474","-0.018431999999996052","0.04086200000000133"
"475","-0.025582000000000528","0.0579959999999982"
"476","-0.0273094117647047","0.02828588235294096"
"477","-0.023745454545455","0.020398636363636993"
"478","-0.029702666666664376","0.013826000000000012"
"479","-0.01421111111111036","0.012797777777778426"
"480","-0.011847857142859044","0.01572428571428665"
"481","-0.016263749999999504","0.016386666666666844"
"482","-0.023007647058825853","0.02163411764705881"
"483","-0.012066874999997923","0.00736812500000017"
"484","-0.013277647058823682","0.01572882352941149"
"485","-0.016539189189189004","0.014848378378378158"
"486","-0.013950625000000105","0.01818812500000111"
"487","-0.013810499999999948","0.014634000000000036"
"488","-0.00835437499999836","0.009680624999999887"
"489","-0.014509166666666573","0.021965833333331908"
"490","-0.012282666666665894","0.014291333333332783"
"491","-0.006675999999999504","0.01001700000000021"
"492","-0.01696800000000067","0.009167000000000059"
"493","-0.01647999999999712","0.015952000000000056"
"494","-0.011551666666666923","0.006478333333333808"
"495","-0.005052499999999682","0.001840000000001396"
"496","-0.021911999999998953","0.015542000000000656"
"497","-0.031268333333332045","0.017000000000000053"
"498","-0.008088571428572777","0.012101428571429247"
"499","-0.004453333333332902","0.012369999999997106"
"500","-0.018807777777776695","0.018399999999999354"
"501","-0.018857857142858085","0.010848571428571065"
"502","-0.012349166666670778","0.01634583333333328"
"503","-0.02440055555555413","0.01777777777777799"
"504","-0.013895454545456558","0.015883636363636586"
"505","-1.2063362500000003","0.4991028125000002"
"506","-0.012389107142857523","0.016053750000000262"
"507","-1.1343627906976725","0.37091325581395346"
"508","-0.01720228571428371","0.01853142857142903"
"509","-0.02235880952380853","0.0201759523809524"
"510","-0.020759374999998137","0.01477874999999973"
"511","-0.016300232558142023","0.021376744186046428"
"512","-0.03218512195122276","0.031844146341463535"
"513","-0.02789048780487716","0.02728878048780424"
"514","-0.023124400000000378","0.023716799999999552"
"515","-0.02011555555555273","0.014491111111111208"
"516","-0.019485609756097026","0.014722682926829937"
"517","0.0","0.0"
"518","-0.09334125000000099","0.10476875000000074"
"519","-0.01803750000000015","0.018377499999999714"
"520","-0.0441928571428568","0.047164285714287706"
"521","-0.02375750000000565","0.02398000000000078"
"522","-0.02564000000000277","0.015701666666666725"
"523","-0.022742352941177345","0.029791764705883014"
"524","-0.035614999999999064","0.028343125000000136"
"525","-0.013672631578946581","0.014733684210526496"
"526","-0.04402166666666515","0.025191111111111733"
"527","-0.009162857142857155","0.01112714285714286"
"528","-0.015600416666667746","0.013768541666666264"
"529","-0.013610000000001558","0.01878955555555611"
"530","-0.01631050000000105","0.018319999999999847"
"531","-0.01754608695652223","0.018735000000000276"
"532","-0.016894117647057904","0.01591607843137271"
"533","-0.009760000000001072","0.009466956521739248"
"534","-0.013123000000001639","0.005919999999998993"
"535","-0.008345999999999283","0.004944666666666819"
"536","-0.009230624999998938","0.005263124999999258"
"537","-0.009449090909089752","0.013150909090908285"
"538","-0.014508636363636963","0.01244454545454539"
"539","-0.013124999999999906","0.010694999999998936"
"540","-0.02396076923076807","0.013713846153846222"
"541","-0.011942941176470068","0.00930470588235324"
"542","-0.01307999999999814","0.006909285714286284"
"543","-0.015621250000002362","0.006912500000000321"
"544","-0.01664846153846228","0.013092307692307514"
"545","-0.014659285714286747","0.01637500000000003"
"546","-0.015442272727271248","0.01840454545454584"
"547","-0.01007388888888943","0.013668888888890111"
"548","-0.011226428571430145","0.01178000000000041"
"549","-0.006262999999999863","0.005908999999999883"
"550","-0.011414255319147906","0.009895531914893844"
"551","-0.01418547619047672","0.011735714285714596"
"552","-0.8988383673469389","0.08467265306122432"
"553","-0.010012830188679853","0.013266981132076158"
"554","-0.01712535714285706","0.011516785714285747"
"555","-0.01022324999999924","0.010693249999999477"
"556","-0.01316937500000126","0.021760937500000632"
"557","-0.02218611111110944","0.016948888888889197"
"558","-0.02406899999999818","0.01498200000000054"
"559","-0.03335177777777763","0.0682108888888894"
"560","-0.027711194029851834","0.0377464179104476"
"561","-0.03506142857143161","0.03508775510204112"
"562","-0.05587799999999561","0.06973199999999942"
"563","-0.017751176470588933","0.02009823529411789"
"564","0.0","0.0"
"565","-0.031100000000000308","0.013618787878787876"
"566","-0.04521533333333269","0.00686533333333396"
"567","-0.03364625000000032","-0.024043749999999253"
"568","-0.039767142857144985","-0.024940000000000344"
"569","-0.05511399999999682","0.03105199999999968"
"570","-0.025802499999998396","0.01630749999999903"
"571","-0.019217500000002552","-0.004368750000000254"
"572","-0.0212627777777781","0.006911666666666723"
"573","-0.014338589743589755","0.005514358974358548"
"574","-0.02004678571428618","0.0025939285714292127"
"575","-0.01480349999999877","0.006290999999999869"
"576","-0.02221741935483903","0.010720967741934737"
"577","-0.020126938775510337","0.012161836734694368"
"578","-0.015632564102565503","0.0068276923076931745"
"579","-0.012472195121952254","0.009722682926829285"
"580","-0.02054428571428532","0.00961285714285746"
"581","-0.020716176470588387","0.007054117647058642"
"582","-0.022377333333332673","0.009170666666666232"
"583","-0.009450624999999935","-0.005115000000000869"
"584","-0.01280699999999868","0.002632000000000545"
"585","0.0","0.0"
"586","-0.02168500000000222","0.004565000000000552"
"587","-0.01699571428571391","-0.007184285714286785"
"588","-0.008769999999999811","-0.006543999999999528"
"589","-0.014018181818180799","-0.003953636363636871"
"590","-0.014066190476189348","-0.004695238095238318"
"591","-0.008171111111112041","6.583333333334767E-4"
"592","-0.019511111111114192","-0.010353888888888897"
"593","-0.01170933333333295","0.0020046666666668025"
"594","-0.012739999999998924","-0.004934545454545323"
"595","-0.04882333333333494","-0.04007428571428543"
"596","-0.016370769230774202","-0.010823846153846316"
"597","-0.015170799999999075","0.004135600000000323"
"598","-0.008352400000001125","-0.0011368000000001642"
"599","-0.017359583333332946","0.004465416666666592"
"600","-0.015867586206897353","-8.005172413793252E-4"
"601","-0.013819999999997609","-0.00349592592592573"
"602","-0.9246353124999984","0.02324296874999998"
"603","-0.01583473684210639","0.002223421052631829"
"604","-0.019365434782608118","-0.01727369565217367"
"605","-0.021402580645160138","-0.007319354838709695"
"606","-0.024897411764705252","-0.008400705882353149"
"607","-0.04215537735848919","-0.029214339622641354"
"608","-0.03265815533980536","-0.004115533980582935"
"609","-0.02958170731707394","0.0040026829268298095"
"610","-0.021096627906978634","9.403488372090648E-4"
"611","0.0","0.0"
"612","-0.024903333333332018","-0.026103333333332774"
"613","-0.05381714285714155","-0.053372857142860095"
"614","-0.03387799999999368","-0.05068699999999993"
"615","-0.06702647058823571","-0.03164529411764672"
"616","-0.03990000000001004","-0.013755000000003292"
"617","-0.018473333333334056","-0.014991111111110436"
"618","-0.0066300000000083514","-0.029609999999999914"
"619","-0.015618571428571672","-0.007662857142856337"
"620","-0.019032352941175897","-0.01605705882352967"
"621","-0.020068571428573313","-0.01657095238095286"
"622","-0.01691749999999903","-0.016168125000000533"
"623","-0.015083846153845734","-0.011282307692307989"
"624","-0.02166083333333339","-0.011017500000000494"
"625","-0.015100909090906162","-0.00903272727272702"
"626","-0.015735294117649675","-0.01569058823529341"
"627","-0.012463333333331642","-0.017483750000000242"
"628","-0.009725999999999147","-0.009104000000000311"
"629","-0.014012941176471743","-0.005463529411764763"
"630","-0.01910833333333291","-0.017106666666666232"
"631","-0.00668571428571393","-0.012152857142856379"
"632","-0.007766666666663961","-0.009530000000001593"
"633","-0.006409230769230808","-0.007880769230769037"
"634","-0.009271428571428788","-0.0036585714285712256"
"635","-0.013703846153846327","-0.008765384615385093"
"636","-0.014080000000001485","-0.014108636363636766"
"637","-0.012853181818182109","-0.014228636363636582"
"638","-0.011898666666667642","-0.017221999999999817"
"639","-0.011293529411763693","-0.014974705882353213"
"640","-0.032148888888888415","-0.017979629629629637"
"641","-0.01938600000000065","-0.010899200000000064"
"642","-0.022522121212123058","-0.02275151515151488"
"643","-0.012139500000001214","-0.012969249999999821"
"644","-0.016654909090908374","-0.018694727272726974"
"645","-0.016941724137930984","-0.02041758620689624"
"646","-0.01921344827586202","-0.019185517241379214"
"647","-0.018246428571429312","-0.016672857142856806"
"648","-0.02391605263157864","-0.01693078947368442"
"649","-0.02236687500000034","-0.024850312499999472"
"650","-0.022340666666665263","-0.024898666666666833"
"651","-0.025541071428571222","-0.022181785714285418"
"652","-0.03033620689655373","-0.0302182758620687"
"653","-0.036769062499999894","-0.030425312500000024"
"654","-0.03296508928571372","-0.04006133928571413"
"655","-0.04410819672131037","-0.0432591803278689"
"656","-0.013234285714286134","-0.02097214285714331"
"657","-0.03144222222222402","-0.021743333333333423"
"658","0.0","0.0"
"659","-0.017434999999990763","-0.023920000000000385"
"660","-0.025998000000000233","-0.06365800000000021"
"661","-0.031638999999995754","-0.01819199999999945"
"662","-0.04497124999999935","-0.042471874999999715"
"663","-0.024821739130435398","-0.021907826086957242"
"664","-0.013982608695651792","-0.012740869565217602"
"665","-0.01272428571428641","-0.007574999999999983"
"666","-0.03178200000000046","-0.018064000000000392"
"667","-0.022237999999999404","-0.02153199999999984"
"668","-0.005286666666665478","-0.009636666666667182"
"669","-0.016711999999995796","-0.0161539999999988"
"670","-0.32738052631579345","-0.35771578947368504"
"671","-0.015696363636364005","-0.01619727272727254"
"672","-0.017989230769228853","-0.02122923076923163"
"673","-0.02419727272727198","-0.028787272727272942"
"674","-0.017171999999999344","-0.0175060000000002"
"675","-0.006872000000002742","-0.01968000000000032"
"676","-0.002852500000003033","-0.0019075000000015052"
"677","-0.0073249999999980275","-0.00889499999999721"
"678","-0.010398181818180257","-0.006914545454546586"
"679","-0.010700999999998118","-0.0092920000000003"
"680","-0.012925555555553735","-0.006457777777776464"
"681","-0.00903199999999984","-0.012933000000000305"
"682","-0.030442857142855724","-0.01407142857142826"
"683","-0.009393333333330625","-0.008153333333333753"
"684","-0.008289999999999983","-0.03285000000000101"
"685","-0.02481499999999966","-0.010016666666665822"
"686","-0.16732333333333335","-0.012728333333333453"
"687","-0.0192692307692315","-0.016979230769231017"
"688","-0.009291111111112273","-0.007883333333332921"
"689","-0.006485454545456419","-0.009194090909091492"
"690","-0.006125000000000232","-0.00677333333333389"
"691","-0.00946187499999862","-0.01652874999999887"
"692","-0.008733636363637422","-0.010769090909091455"
"693","-0.02618111111111195","-0.01601972222222139"
"694","-0.018697500000000197","-0.02568886363636375"
"695","-0.020415000000001463","-0.013702045454544776"
"696","-0.02271127659574623","-0.025649361702128035"
"697","-0.017281428571430574","-0.03013714285714261"
"698","-0.022645263157894953","-0.021229999999999756"
"699","-0.03262636363636515","-0.019676363636364803"
"700","-0.3808708163265313","-0.2713487755102043"
"701","-0.03442895522388173","-0.0296802985074632"
"702","-0.034908076923076035","-0.030144615384615284"
"703","-0.02041250000000261","-0.027789999999999537"
"704","-0.03431428571428593","-0.022846428571428743"
"705","0.0","0.0"
"706","-0.04390000000000027","-0.014680000000005577"
"707","-0.028796000000000887","-0.023177999999997922"
"708","-0.030402857142854196","-0.03278857142857155"
"709","-0.014350000000005128","-0.021424285714287197"
"710","-0.024067999999999187","-0.01556519999999992"
"711","-0.014207000000001102","-0.02127900000000089"
"712","-0.03169374999999919","-0.03684125000000016"
"713","-0.009841428571425987","-0.020487142857143783"
"714","-0.012251428571430674","-0.008472857142856631"
"715","-0.009231052631578395","-0.009316842105263658"
"716","-0.013163000000000835","-0.013031999999999756"
"717","-0.018233333333331103","-0.02062166666666639"
"718","-0.007381818181817611","-0.007015454545454925"
"719","-0.010140666666665273","-0.0038106666666656965"
"720","-0.02083000000000052","-0.020959999999999153"
"721","-0.012716111111111891","-0.009312222222222388"
"722","-0.010549999999999013","-0.010720000000001713"
"723","-0.010016666666666415","-0.00611666666666603"
"724","-0.006654285714285534","-0.00800857142857073"
"725","-0.018166666666665776","-0.012176666666667538"
"726","-0.010568461538461258","-0.008902307692307633"
"727","-0.008592857142853103","-0.005497142857141313"
"728","-0.02048666666666558","-0.019860000000000138"
"729","-0.0069411111111108426","-0.006879999999999676"
"730","-0.012087999999999965","-0.008830000000000383"
"731","-0.018125454545454354","-0.011899090909090339"
"732","-0.01013000000000059","-0.011785555555555839"
"733","-0.032844999999999125","-0.02156250000000215"
"734","-0.018672352941176567","-0.02173882352941155"
"735","-0.014893999999999134","-0.017627333333332964"
"736","-0.0072933333333335465","-0.01622666666666619"
"737","-0.007189166666668356","-0.013142500000000426"
"738","-0.008226666666663126","-0.0034283333333338106"
"739","-0.016109047619048328","-0.025187619047619153"
"740","-0.02102731707317153","-0.018106585365853946"
"741","-0.01381962962962712","-0.019791851851852595"
"742","-0.020277906976745797","-0.02136279069767412"
"743","-0.017279354838707614","-0.01590967741935512"
"744","-0.035497777777781576","-0.06148777777777682"
"745","-0.011683529411765021","-0.02012764705882454"
"746","-0.023382307692309305","-0.03620000000000008"
"747","-0.025145937499999604","-0.030542812500000016"
"748","-0.01369885245901561","-0.014660327868852317"
"749","-0.022695666666666153","-0.02615266666666661"
"750","-0.02244250000000214","-0.03775250000000119"
"751","-0.8883200000000014","-0.23518529411764658"
"752","0.0","0.0"
"753","0.0","0.0"
"754","-0.02619700000000004","-0.01712433333333318"
"755","-0.00679800000000057","-0.006194000000000699"
"756","-0.024855612244897417","-0.0726298979591838"
"757","-0.08139493421052568","-0.057848223684210866"
"758","-0.06831199999999882","-0.047108000000002904"
"759","-0.007485454545455703","-0.023286363636366048"
"760","-0.01324333333333172","-0.00825333333333352"
"761","-0.019856428571428757","-0.013827142857142658"
"762","-0.0045671428571425155","-0.005780714285713933"
"763","-0.01374851851851778","-0.004898518518518602"
"764","-0.007516129032259457","-0.011730322580645052"
"765","-0.08884000000000049","-0.2611739473684211"
"766","-0.014329500000001438","-0.010345000000000226"
"767","-0.009172307692307523","-0.010171538461537902"
"768","-0.01600500000000249","-0.002787500000000165"
"769","-0.013606000000002894","-0.006919999999998083"
"770","-0.014419999999996946","-0.009181000000000949"
"771","-0.008574000000001547","-0.008891999999998745"
"772","-0.011890000000001066","-0.013939999999998065"
"773","-0.005514999999995496","-0.005064999999994768"
"774","-0.005213333333337289","-0.006249999999999052"
"775","-0.011839999999992301","-0.004460000000001685"
"776","-0.012923333333330808","-0.013156666666665965"
"777","-0.003569999999999851","-0.005835000000001145"
"778","-0.005729999999999791","-0.008751249999999544"
"779","-0.013143636363637447","-0.00861545454545491"
"780","-0.007555999999999111","-0.005113999999998953"
"781","0.0","0.0"
"782","-0.015036363636364765","-0.011585454545453254"
"783","-0.007924999999999738","-0.005657500000001869"
"784","-0.011359230769228974","-0.009416923076922391"
"785","-0.012267142857144872","-0.019967142857143676"
"786","-0.024386956521739292","-0.024843043478260603"
"787","-0.02457642857142872","-0.032541785714285086"
"788","-0.5026389999999981","-0.022266428571428267"
"789","-0.01844760000000093","-0.013825199999999996"
"790","-0.016776097560975662","-0.016811219512194102"
"791","-0.015045500000002932","-0.01050300000000135"
"792","-0.017613870967741536","-0.018937741935481714"
"793","-0.016799420289855073","-0.013475797101448746"
"794","-0.03660079999999965","-0.0139103999999994"
"795","-0.14297395522387937","-0.13861947761193988"
"796","-0.017343793103448933","-0.014594137931034368"
"797","0.0","0.0"
"798","-0.018998181818176363","-0.02342272727272646"
"799","0.0","0.0"
"800","-0.00910941176470587","-0.009165294117644695"
"801","-0.016181818181818134","-0.025405454545455862"
"802","0.0","0.0"
"803","-0.017847999999993293","-0.016385999999997125"
"804","-0.025996923076923473","-0.02692961538461593"
"805","-0.015178571428571834","-0.01905857142857213"
"806","-0.008975106382978494","-0.005520851063829862"
"807","-0.013380434782609795","-0.01647521739130483"
"808","-0.012624375000000576","-0.010593749999999513"
"809","-0.007978333333333568","-0.009402500000000202"
"810","-0.03426833333333236","-0.037465555555554725"
"811","-0.01182119999999884","-0.013344799999999567"
"812","-0.011416153846152629","-0.013853846153844747"
"813","-0.0056341666666650525","-0.00980083333333385"
"814","-0.010356666666668938","-0.007786666666667941"
"815","-0.007715714285714016","-0.013951428571428235"
"816","-0.014304999999996681","-0.007284999999999542"
"817","-0.00688000000000244","-0.021119999999999806"
"818","-0.004590000000000316","-0.005199999999994986"
"819","0.0","0.0"
"820","0.0","0.0"
"821","0.0","0.0"
"822","-0.005950000000005673","-0.0014600000000015712"
"823","-0.0035249999999997783","-0.00943499999999986"
"824","-0.0011150000000021976","-0.006624999999999659"
"825","-0.022682500000001937","-0.04633750000000347"
"826","-0.004016470588236633","-0.0038082352941168386"
"827","-0.007922941176471788","-0.00932352941176492"
"828","-0.02362000000000819","-0.0016499999999908255"
"829","-0.010347999999999047","-0.00807400000000058"
"830","-0.007344999999993718","-0.006394999999997708"
"831","-0.011578999999999695","-0.013329999999999486"
"832","-0.02012684210526354","-0.023698947368419897"
"833","-0.01664933333333304","-0.012294000000001167"
"834","-0.016577962962962017","-0.01647388888888899"
"835","-0.021284629629627086","-0.01890222222222309"
"836","-0.025867222222221327","-0.01787666666666728"
"837","0.0","0.0"
"838","-0.011483157894737042","-0.023519473684212613"
"839","-0.014455555555556998","-0.013304444444444464"
"840","-0.023169333333333004","-0.016122000000000015"
"841","-0.01719682926829249","-0.02028268292682819"
"842","-0.014406666666667197","-0.015150416666666425"
"843","-0.0037400000000005207","-0.014105000000001588"
"844","0.0","0.0"
"845","-0.015250000000006026","-0.009369999999999833"
"846","0.0","0.0"
"847","0.0","0.0"
"848","0.0","0.0"
"849","-0.027260000000012496","-0.04033999999999338"
"850","0.0","0.0"
"851","-0.08973999999999194","-0.10301000000000471"
"852","-0.02172000000000196","-0.01363000000000151"
"853","-0.005076666666667655","-0.01371083333333504"
"854","-0.016929473684210973","-0.030545263157895425"
"855","-0.012188333333331395","-0.026755000000001417"
"856","-0.027780833333333515","-0.027291666666667307"
"857","-0.01655142857142522","-0.009038571428572848"
"858","-0.0023899999999912325","-0.013419999999996435"
"859","-0.02624250000000572","-0.013625000000001108"
"860","-0.0012100000000003774","-0.011659999999999116"
"861","-0.0023749999999989058","-0.007239999999999469"
"862","-0.007500000000000284","-0.0022399999999933584"
"863","0.0","0.0"
"864","0.0","0.0"
"865","0.0","0.0"
"866","-0.005339999999996792","-0.007199999999997431"
"867","-0.006599999999998829","-0.015150000000005548"
"868","-0.008409999999997808","-0.041159999999997865"
"869","0.0","0.0"
"870","0.0","0.0"
"871","-0.01215333333333509","-0.006449999999998586"
"872","-0.015570000000003859","-0.015339999999987697"
"873","-0.008209999999998274","-0.0025799999999946976"
"874","-0.004036666666664246","-0.004586666666668293"
"875","-7.0999999999799E-4","-0.007720000000006166"
"876","-0.023772499999999752","-0.019367500000001314"
"877","-0.014611666666664766","-0.020839999999999748"
"878","-0.009925714285715108","-0.012411428571426646"
"879","-0.01311000000000067","-0.023351111111111322"
"880","-0.021745624999998547","-0.018348749999998137"
"881","-0.011242499999999822","-0.011162499999999298"
"882","-0.020001666666664402","-0.02501333333333437"
"883","-0.015472631578946872","-0.022778421052631802"
"884","-0.01756333333333397","-0.017200833333332593"
"885","-0.023817857142856065","-0.023933571428571554"
"886","-0.009305000000011887","-0.011420000000004649"
"887","-0.008942857142858631","-0.018218571428569925"
"888","-0.010656666666667055","-0.0255866666666653"
"889","0.0","0.0"
"890","0.0","0.0"
"891","0.0","0.0"
"892","0.0","0.0"
"893","0.0","0.0"
"894","0.0","0.0"
"895","-0.024223750000006206","-0.01940125000000137"
"896","0.0","0.0"
"897","-6.150000000006983E-4","-0.021364999999999412"
"898","-0.02268714285713891","-0.01611571428571677"
"899","-0.012310000000001153","-0.013293999999999074"
"900","-0.020477272727273288","-0.01760818181818086"
"901","-0.005612000000002837","-0.005158000000004393"
"902","-0.04549636363636302","-0.00973181818181698"
"903","-0.028008571428570304","-0.05919142857142593"
"904","-0.02108999999999739","-0.05182200000000137"
"905","-0.05779500000000759","-0.04561999999999955"
"906","-0.019000000000004274","-0.05097666666666593"
"907","-0.031080000000002883","-0.0230500000000049"
"908","0.0","0.0"
"909","0.0","0.0"
"910","-0.004989999999992278","-0.010699999999992826"
"911","0.0","0.0"
"912","0.0","0.0"
"913","0.0","0.0"
"914","0.0","0.0"
"915","-0.008223333333328734","-0.0048333333333303585"
"916","-0.004959999999996967","-0.007390000000000896"
"917","-0.004086666666663537","-0.004783333333335804"
"918","-0.009689999999999088","-0.02086500000000413"
"919","-0.007486000000000104","-0.009701999999997213"
"920","-0.010906666666668249","-0.008500000000000322"
"921","-0.006026666666668253","-0.004058333333334237"
"922","-0.022543333333336097","-0.010923333333330731"
"923","0.0","0.0"
"924","-7.949999999965485E-4","-0.008960000000005408"
"925","-0.004834999999999923","-0.0085899999999981"
"926","-0.011952499999999588","-0.011820000000003716"
"927","-0.021144999999997083","-0.010988333333331232"
"928","-0.018029230769227612","-0.019188461538461772"
"929","-0.01115000000000208","-0.012167000000000172"
"930","-0.03214545454545585","-0.036587272727273176"
"931","-0.019191363636364592","-0.013096818181819262"
"932","-0.01224000000000558","-0.0011399999999994748"
"933","-0.011434999999998752","-0.020963750000002612"
"934","-0.014072222222223572","-0.044751111111110395"
"935","0.0","0.0"
"936","0.0","0.0"
"937","0.0","0.0"
"938","0.0","0.0"
"939","0.0","0.0"
"940","0.0","0.0"
"941","-0.00586999999999982","-0.0036099999999983368"
"942","0.0","0.0"
"943","-0.021280000000004407","-0.008164999999991096"
"944","0.0","0.0"
"945","-0.010003333333330033","-0.008444999999999444"
"946","-0.006889999999998508","-0.009559999999993352"
"947","-0.0010599999999882925","-0.007505000000001871"
"948","-0.011212499999999626","-0.007781249999998074"
"949","-0.004803846153846299","-0.005498461538461623"
"950","-0.004960500000002277","-0.006903000000001214"
"951","-0.01932124999999907","-0.01934749999999852"
"952","-0.009796666666667639","-0.005816666666667913"
"953","0.0","0.0"
"954","0.0","0.0"
"955","0.0","0.0"
"956","0.0","0.0"
"957","0.0","0.0"
"958","0.0","0.0"
"959","0.0","0.0"
"960","-0.004284999999999428","-0.010430000000003048"
"961","-0.0012400000000027944","-0.009939999999993177"
"962","-0.013495000000002477","-0.010569999999997748"
"963","0.0","0.0"
"964","0.0","0.0"
"965","-0.007349999999995305","-0.00677999999999912"
"966","-0.007240000000003022","-0.012549999999997397"
"967","0.0","0.0"
"968","-0.015190000000004034","-0.014319999999990785"
"969","-0.0029899999999969396","-0.0080600000000004"
"970","-0.00592500000000129","-0.006666666666667709"
"971","-0.0048850000000015825","-0.0030849999999951194"
"972","-0.014553333333329496","-0.03198999999999804"
"973","-0.008262499999997175","-0.005915000000001669"
"974","-0.012880000000001246","-0.005463999999999203"
"975","-0.05305000000000604","-0.06247000000000469"
"976","0.0","0.0"
"977","-0.026464999999998184","-0.031459999999999155"
"978","-0.014201481481481752","-0.010554814814814717"
"979","-0.021979999999999222","-0.09017999999998949"
"980","-0.010684285714284718","-0.015567142857142764"
"981","-0.010301666666660955","-0.031855000000001375"
"982","-0.013169999999995241","-0.031224999999992065"
"983","0.0","0.0"
"984","0.0","0.0"
"985","0.0","0.0"
"986","0.0","0.0"
"987","0.0","0.0"
"988","-0.011596000000000073","-0.011780000000000967"
"989","0.0","0.0"
"990","-0.011465000000001835","-0.005830000000001334"
"991","-0.013526249999999518","-0.006916249999998847"
"992","-0.01690000000000058","-0.0016249999999935483"
"993","-0.006221666666668864","-0.0109233333333331"
"994","-0.010612000000000066","-0.027136000000001558"
"995","-0.008698749999999311","-0.016871249999997673"
"996","-0.004107777777775823","-0.008638888888889085"
"997","0.0","0.0"
"998","-0.0023900000000018906","-0.005630000000003577"
"999","-0.0027200000000000557","-0.02289999999999992"
"1000","-0.002240000000000464","-0.013530000000002929"
"1001","-0.004649999999998045","-0.016089999999991278"
"1002","-0.01793499999999426","-0.014314999999996303"
"1003","-0.00863000000000369","-0.007095000000003182"
"1004","-0.001239999999995689","-0.0036600000000035493"
"1005","-0.0013700000000014256","-0.004210000000000491"
"1006","-0.008707499999996315","-0.003860000000001307"
"1007","0.0","0.0"
"1008","-1.1000000000649379E-4","-0.007789999999999964"
"1009","-0.011230000000004736","-0.004800000000003024"
"1010","-0.0013199999999997658","-0.011549999999992622"
"1011","-0.011589999999998213","-0.003580000000006578"
"1012","0.0","0.0"
"1013","0.0","0.0"
"1014","0.0","0.0"
"1015","0.0","0.0"
"1016","0.0","0.0"
"1017","0.0","0.0"
"1018","-0.0013699999999943202","-0.005089999999995598"
"1019","-0.012450000000001182","-0.007150000000002876"
"1020","-0.00901666666665335","-0.009196666666660747"
"1021","-0.010789999999985866","-0.006009999999996296"
"1022","-0.01303999999999661","-0.029223333333334267"
"1023","-0.03775777777777181","-0.03388777777777582"
"1024","-0.030738333333336715","-0.025014999999999787"
"1025","0.0","0.0"
"1026","0.0","0.0"
"1027","-0.03668000000000246","-0.03268999999999996"
"1028","-0.021816666666656676","-0.014046666666667798"
"1029","0.0","0.0"
"1030","0.0","0.0"
"1031","0.0","0.0"
"1032","0.0","0.0"
"1033","0.0","0.0"
"1034","0.0","0.0"
"1035","-0.02296555555555566","-0.0135077777777776"
"1036","-0.010859999999997205","-0.01611499999999566"
"1037","-0.017784000000001753","-0.007939999999999258"
"1038","-0.008819090909090993","-0.012303636363638888"
"1039","-0.005399999999999849","-0.005050000000000665"
"1040","-0.005425000000000235","-0.006605000000000416"
"1041","-0.01320000000000121","-0.012049999999998562"
"1042","-0.00844000000000733","-0.011829999999996232"
"1043","-0.004325999999997521","-0.010217999999998995"
"1044","-0.003940000000000055","-0.010210000000000719"
"1045","-0.0012699999999767897","-0.004810000000006198"
"1046","-0.023270000000003677","-0.028244999999994747"
"1047","-0.015200000000007208","-0.029989999999990857"
"1048","0.0","0.0"
"1049","-0.00907999999999376","-0.015320000000002665"
"1050","0.0","0.0"
"1051","-0.005763333333331862","-0.005759999999999839"
"1052","0.0","0.0"
"1053","0.0","0.0"
"1054","0.0","0.0"
"1055","0.0","0.0"
"1056","0.0","0.0"
"1057","0.0","0.0"
"1058","0.0","0.0"
"1059","0.0","0.0"
"1060","0.0","0.0"
"1061","0.0","0.0"
"1062","0.0","0.0"
"1063","0.0","0.0"
"1064","0.0","0.0"
"1065","0.0","0.0"
"1066","0.0","0.0"
"1067","-0.006569999999996412","-0.0057099999999934425"
"1068","-0.026713333333335736","-0.03801500000000028"
"1069","-0.01924230769230917","-0.02635000000000076"
"1070","-0.018880000000001472","-0.021611999999998945"
"1071","0.0","0.0"
"1072","-1.4210854715202004E-14","-1.0000000003174137E-5"
"1073","-6.6666666735197095E-6","-9.999999993700234E-6"
"1074","-0.0010674999999977786","-0.006879999999998887"
"1075","0.0","0.0"
"1076","0.0","0.0"
"1077","0.0","0.0"
"1078","0.0","0.0"
"1079","0.0","0.0"
"1080","0.0","0.0"
"1081","0.0","0.0"
"1082","-0.024950000000000028","-0.038729999999993936"
"1083","-0.01579687499999949","-0.010771250000001675"
"1084","0.0","0.0"
"1085","-0.012237142857143215","-0.010174285714289308"
"1086","0.0","0.0"
"1087","0.0","0.0"
"1088","0.0","0.0"
"1089","0.0","0.0"
"1090","0.0","0.0"
"1091","-0.03867999999999583","-0.015950000000003683"
"1092","-0.021069999999998146","-0.02326500000000209"
"1093","-0.00262999999999991","-0.008809999999996876"
"1094","0.0","0.0"
"1095","-0.008069999999996469","-0.003839999999996735"
"1096","0.0","0.0"
"1097","0.0","0.0"
"1098","0.0","0.0"
"1099","0.0","0.0"
"1100","0.0","0.0"
"1101","0.0","0.0"
"1102","0.0","0.0"
"1103","0.0","0.0"
"1104","0.0","0.0"
"1105","0.0","0.0"
"1106","0.0","0.0"
"1107","0.0","0.0"
"1108","0.0","0.0"
"1109","0.0","0.0"
"1110","0.0","0.0"
"1111","0.0","0.0"
"1112","0.0","0.0"
"1113","0.0","0.0"
"1114","0.0","0.0"
"1115","-0.0025199999999898637","-0.029389999999992256"
"1116","-0.0064749999999946795","-0.03469999999999729"
"1117","-0.01987399999999866","-0.01330600000000004"
"1118","-0.012818666666665498","-0.012256000000000237"
"1119","-1.0000000003174137E-5","-9.999999988963282E-6"
"1120","0.0","0.0"
"1121","0.0","0.0"
"1122","0.0","0.0"
"1123","0.0","0.0"
"1124","0.0","0.0"
"1125","0.0","0.0"
"1126","0.0","0.0"
"1127","0.0","0.0"
"1128","0.0","0.0"
"1129","0.0","0.0"
"1130","0.0","0.0"
"1131","-0.0061749999999998195","-0.0122850000000021"
"1132","-0.007830000000000226","-0.014430000000004384"
"1133","-0.014355000000000118","-0.01583999999999719"
"1134","-0.013325000000000031","-0.009310000000002816"
"1135","0.0","0.0"
"1136","-0.022189999999998378","-0.04983999999999611"
"1137","0.0","0.0"
"1138","0.0","0.0"
"1139","0.0","0.0"
"1140","0.0","0.0"
"1141","0.0","0.0"
"1142","0.0","0.0"
"1143","0.0","0.0"
"1144","0.0","0.0"
"1145","0.0","0.0"
"1146","0.0","0.0"
"1147","0.0","0.0"
"1148","0.0","0.0"
"1149","0.0","0.0"
"1150","0.0","0.0"
"1151","0.0","0.0"
"1152","0.0","0.0"
"1153","0.0","0.0"
"1154","0.0","0.0"
"1155","0.0","0.0"
"1156","0.0","0.0"
"1157","0.0","0.0"
"1158","0.0","0.0"
"1159","0.0","0.0"
"1160","0.0","0.0"
"1161","0.0","0.0"
"1162","0.0","0.0"
"1163","0.0","0.0"
"1164","0.0","0.0"
"1165","0.0","0.0"
"1166","-0.020336666666665337","-0.019631666666668934"
"1167","-0.01619799999999998","-0.009600000000000363"
"1168","-0.009092307692307818","-0.008496153846152765"
"1169","-9.999999999621423E-6","-2.5000000061226046E-6"
"1170","-7.500000005933316E-6","-2.500000004346248E-6"
"1171","0.0","0.0"
"1172","0.0","0.0"
"1173","0.0","0.0"
"1174","0.0","0.0"
