"cell_id","acc_x","acc_y"
"0","0.0","0.0"
"1","0.0","0.0"
"2","0.0","0.0"
"3","0.0","0.0"
"4","0.0","0.0"
"5","0.0","0.0"
"6","0.0","0.0"
"7","0.0","0.0"
"8","0.0","0.0"
"9","0.0","0.0"
"10","0.0","0.0"
"11","0.0","0.0"
"12","0.0","0.0"
"13","0.0","0.0"
"14","0.0","0.0"
"15","0.0","0.0"
"16","0.0","0.0"
"17","0.0","0.0"
"18","0.0","0.0"
"19","0.0","0.0"
"20","0.0","0.0"
"21","0.0","0.0"
"22","0.0","0.0"
"23","0.0","0.0"
"24","-0.02323000000000519","0.004790000000000072"
"25","-0.019384999999999764","0.010244999999999949"
"26","-0.0032233333333332817","0.006713333333333423"
"27","0.0","0.0"
"28","0.0","0.0"
"29","-0.015440000000001675","0.007769999999999999"
"30","0.0","0.0"
"31","0.0","0.0"
"32","-0.0231899999999996","0.03432000000000035"
"33","0.0","0.0"
"34","0.0","0.0"
"35","0.0","0.0"
"36","0.0","0.0"
"37","0.0","0.0"
"38","0.0","0.0"
"39","0.0","0.0"
"40","0.0","0.0"
"41","0.0","0.0"
"42","0.0","0.0"
"43","0.0","0.0"
"44","0.0","0.0"
"45","0.0","0.0"
"46","0.0","0.0"
"47","0.0","0.0"
"48","0.0","0.0"
"49","0.0","0.0"
"50","0.0","0.0"
"51","0.0","0.0"
"52","0.0","0.0"
"53","0.0","0.0"
"54","0.0","0.0"
"55","0.0","0.0"
"56","0.0","0.0"
"57","0.0","0.0"
"58","0.0","0.0"
"59","0.0","0.0"
"60","0.0","0.0"
"61","0.0","0.0"
"62","0.0","0.0"
"63","0.0","0.0"
"64","0.0","0.0"
"65","0.0","0.0"
"66","0.0","0.0"
"67","-0.026279999999992754","0.009700000000000042"
"68","-0.001539999999991437","0.015169999999999462"
"69","-0.014215000000000089","0.009090000000000042"
"70","-0.03160000000000451","0.013009999999999966"
"71","0.0","0.0"
"72","0.0","0.0"
"73","0.0","0.0"
"74","0.0","0.0"
"75","0.0","0.0"
"76","0.0","0.0"
"77","0.0","0.0"
"78","0.0","0.0"
"79","0.0","0.0"
"80","-0.008099999999998886","0.025629999999999598"
"81","-0.014479999999998938","0.02463499999999974"
"82","0.0","0.0"
"83","0.0","0.0"
"84","0.0","0.0"
"85","0.0","0.0"
"86","0.0","0.0"
"87","0.0","0.0"
"88","0.0","0.0"
"89","0.0","0.0"
"90","0.0","0.0"
"91","0.0","0.0"
"92","0.0","0.0"
"93","0.0","0.0"
"94","0.0","0.0"
"95","0.0","0.0"
"96","0.0","0.0"
"97","0.0","0.0"
"98","0.0","0.0"
"99","0.0","0.0"
"100","0.0","0.0"
"101","0.0","0.0"
"102","0.0","0.0"
"103","0.0","0.0"
"104","0.0","0.0"
"105","0.0","0.0"
"106","0.0","0.0"
"107","0.0","0.0"
"108","0.0","0.0"
"109","0.0","0.0"
"110","0.0","0.0"
"111","0.0","0.0"
"112","-0.010500000000000398","0.011920000000000819"
"113","-0.00982999999999734","0.02236999999999978"
"114","0.0","0.0"
"115","0.0","0.0"
"116","0.0","0.0"
"117","0.0","0.0"
"118","0.0","0.0"
"119","0.0","0.0"
"120","0.0","0.0"
"121","0.0","0.0"
"122","0.0","0.0"
"123","0.0","0.0"
"124","0.0","0.0"
"125","0.0","0.0"
"126","0.0","0.0"
"127","0.0","0.0"
"128","0.0","0.0"
"129","-0.0010200000000111231","0.029050000000000686"
"130","0.0","0.0"
"131","0.0","0.0"
"132","0.0","0.0"
"133","0.0","0.0"
"134","0.0","0.0"
"135","0.0","0.0"
"136","0.0","0.0"
"137","0.0","0.0"
"138","0.0","0.0"
"139","0.0","0.0"
"140","0.0","0.0"
"141","0.0","0.0"
"142","0.0","0.0"
"143","0.0","0.0"
"144","0.0","0.0"
"145","-0.0025650000000112527","0.015449999999999076"
"146","-0.007305999999999457","0.009682000000000102"
"147","-0.009102307692307713","0.006947948717948722"
"148","-0.004040000000003374","0.011998571428570795"
"149","0.0","0.0"
"150","0.0","0.0"
"151","0.0","0.0"
"152","-0.03743000000000052","0.02690999999999999"
"153","-0.029640000000000555","0.05938999999999961"
"154","0.0","0.0"
"155","0.0","0.0"
"156","-0.026225000000000165","0.03416499999999978"
"157","-0.00802333333333157","0.007796666666666378"
"158","-0.013889999999996405","0.003209999999999269"
"159","0.0","0.0"
"160","0.0","0.0"
"161","0.0","0.0"
"162","0.0","0.0"
"163","0.0","0.0"
"164","0.0","0.0"
"165","0.0","0.0"
"166","0.0","0.0"
"167","0.0","0.0"
"168","0.0","0.0"
"169","0.0","0.0"
"170","0.0","0.0"
"171","0.0","0.0"
"172","0.0","0.0"
"173","0.0","0.0"
"174","0.0","0.0"
"175","0.0","0.0"
"176","-0.00299749999999932","0.006732500000000252"
"177","0.0","0.0"
"178","-0.006835000000009472","0.003929999999999989"
"179","0.0","0.0"
"180","-0.006243333333339744","0.01191999999999993"
"181","-0.009268000000000142","0.016107999999999834"
"182","-0.0063816666666696165","0.013683333333333417"
"183","-0.009672500000004192","0.020220000000000127"
"184","-0.004546000000001982","0.01451600000000024"
"185","-0.010170000000002233","0.006875000000000853"
"186","0.0","0.0"
"187","0.0","0.0"
"188","0.0","0.0"
"189","0.0","0.0"
"190","0.0","0.0"
"191","-1.4000000000180535E-4","0.017160000000000508"
"192","-0.014537692307692819","0.026674999999999935"
"193","-0.01654874999999978","0.018221249999999634"
"194","-0.010048636363636166","0.01473863636363641"
"195","-0.011603076923078194","0.012409230769230898"
"196","-0.02147555555555493","0.03548555555555567"
"197","-0.019238749999999527","0.02630124999999972"
"198","-0.007729999999998682","0.007680000000000575"
"199","-0.0036300000000011323","0.005180000000001073"
"200","-0.02286666666666548","0.024616666666666138"
"201","-0.015070000000003839","0.02067666666666727"
"202","-0.004689999999982319","0.0073499999999988574"
"203","0.0","0.0"
"204","0.0","0.0"
"205","-0.01092999999999833","0.012229999999999741"
"206","0.0","0.0"
"207","0.0","0.0"
"208","0.0","0.0"
"209","0.0","0.0"
"210","0.0","0.0"
"211","0.0","0.0"
"212","0.0","0.0"
"213","0.0","0.0"
"214","0.0","0.0"
"215","0.0","0.0"
"216","-0.019040000000003943","0.02109000000000094"
"217","-0.0147399999999962","0.0033999999999991815"
"218","0.0","0.0"
"219","0.0","0.0"
"220","-0.011449999999996407","0.0018266666666656068"
"221","-0.00508666666665647","0.008486666666667494"
"222","-0.007625000000004434","0.0017649999999997945"
"223","-0.013036666666669324","0.010249999999999796"
"224","-0.004764999999995467","0.005909999999999194"
"225","-0.005006666666667788","0.0037966666666665225"
"226","-0.008140000000002109","0.005693333333332736"
"227","-0.01069000000000031","0.00735750000000035"
"228","0.0","0.0"
"229","0.0","0.0"
"230","-0.018636000000000763","0.026467999999999846"
"231","-0.006770000000003051","0.008860000000000312"
"232","-0.017785000000003492","0.05473999999999979"
"233","0.0","0.0"
"234","0.0","0.0"
"235","0.0","0.0"
"236","0.0","0.0"
"237","0.0","0.0"
"238","-0.014183999999999664","0.016447000000000676"
"239","-0.013368412698413145","0.02135873015873023"
"240","-0.02762210526315827","0.026098947368420847"
"241","-0.02066166666666754","0.024831666666665992"
"242","-0.02957526315789475","0.026462631578947512"
"243","-0.012173333333331766","0.015696666666667112"
"244","-0.02314000000000031","0.01740555555555565"
"245","-0.03759312500000078","0.02151312499999991"
"246","-0.02339399999999827","0.01421899999999976"
"247","-0.02886400000000151","0.031090000000000017"
"248","-1.1479299999999988","0.3756699999999995"
"249","-0.01486600000000209","0.017154000000000023"
"250","-0.013557500000000111","0.013667499999999944"
"251","-0.011580000000002144","0.0409000000000006"
"252","-0.010296666666666473","0.009693333333334072"
"253","-0.003000000000007219","0.003939999999998278"
"254","0.0","0.0"
"255","-0.008559999999995682","0.015799999999998704"
"256","-0.001879999999996329","0.019600000000000506"
"257","-0.01976333333333713","0.01352000000000153"
"258","-0.005355000000001553","0.0037125000000002295"
"259","-0.012879999999999114","0.010674999999999102"
"260","-0.015749999999997044","0.014120000000000132"
"261","-0.007239999999999469","0.009159999999998725"
"262","-0.0032899999999926877","0.010140000000001592"
"263","-0.007519999999992422","0.00949000000000133"
"264","-0.015070000000001471","0.002955000000000041"
"265","-0.01745000000000374","8.599999999976404E-4"
"266","0.0","0.0"
"267","0.0","0.0"
"268","0.0","0.0"
"269","0.0","0.0"
"270","0.0","0.0"
"271","0.0","0.0"
"272","0.0","0.0"
"273","-0.006511666666665879","0.004993333333332887"
"274","-0.0014649999999960528","0.002474999999999561"
"275","-0.0026733333333292344","0.00355833333333333"
"276","0.0","0.0"
"277","0.0","0.0"
"278","-0.011900833333331917","0.006834166666666253"
"279","-0.0145542857142859","0.012775000000000425"
"280","0.0","0.0"
"281","0.0","0.0"
"282","0.0","0.0"
"283","0.0","0.0"
"284","-0.034255555555555164","0.02852666666666654"
"285","-0.014698400000000014","0.021244000000000086"
"286","-0.022187741935483996","0.0276503225806454"
"287","-0.02176546391752583","0.02508659793814421"
"288","-0.019479387755102037","0.019051836734694072"
"289","-0.020755757575757497","0.022188484848485436"
"290","-0.013184871794871164","0.010988461538461435"
"291","-0.013761538461537817","0.007190769230769607"
"292","-0.05970500000000042","0.050553333333333526"
"293","-0.01868384615384527","0.016665384615384856"
"294","-0.03242199999999755","0.015653999999999967"
"295","-0.026710000000000948","0.023195555555555733"
"296","-0.019950000000001467","0.027029999999999887"
"297","-0.026149999999997675","0.012030000000001095"
"298","-0.03246666666666679","0.012656666666666538"
"299","-0.025369999999998782","0.019280000000000186"
"300","-0.005859999999998422","0.018050000000000566"
"301","-0.014800000000001035","0.0070699999999987995"
"302","-0.012499999999995737","0.006229999999999514"
"303","-0.0156599999999969","0.01605666666666572"
"304","-0.0100879999999961","0.012865999999999645"
"305","-0.0020499999999969987","0.010919999999999597"
"306","-0.004339999999992017","0.01305000000000156"
"307","-0.008810000000003981","0.008359999999999701"
"308","-0.002380000000002269","0.019709999999999894"
"309","0.0","0.0"
"310","0.0","0.0"
"311","0.0","0.0"
"312","0.0","0.0"
"313","0.0","0.0"
"314","0.0","0.0"
"315","0.0","0.0"
"316","0.0","0.0"
"317","-0.008849999999995362","0.009294999999998943"
"318","-0.009370000000004097","0.0047099999999975495"
"319","-0.0143200000000121","0.061060000000001224"
"320","-0.015820000000019263","0.024769999999998404"
"321","0.0","0.0"
"322","-0.0012900000000115597","0.0013600000000000279"
"323","-0.0035349999999922943","0.011272500000000907"
"324","-0.00904000000000238","0.00936500000000029"
"325","-0.009970999999997333","0.010601999999999556"
"326","-0.017241111111112498","0.012913333333332765"
"327","0.0","0.0"
"328","0.0","0.0"
"329","0.0","0.0"
"330","0.0","0.0"
"331","-0.023308888888889316","0.015893333333333832"
"332","-0.014791818181817367","0.021655227272727326"
"333","-0.07693974576271156","0.2600157627118644"
"334","-0.019964647887323553","0.015844366197183"
"335","-0.012538103448276099","0.013584827586207106"
"336","-0.01979631578947003","0.025706842105262837"
"337","-0.013230740740741183","0.011887407407407388"
"338","-0.014494999999999703","0.015420208333333426"
"339","-0.01311851851851801","0.012512037037036792"
"340","-0.01640349999999984","0.024579000000000482"
"341","-0.038113124999998416","0.02561374999999988"
"342","-0.015115000000000952","0.015954999999999348"
"343","-0.019479999999999584","0.017155384615384753"
"344","-0.00880285714285632","0.015992857142857426"
"345","-0.013444444444443902","0.012394444444444572"
"346","-0.013082000000001415","0.011141999999999541"
"347","-0.022556000000000152","0.021161999999999993"
"348","-0.011210000000000164","0.00628750000000089"
"349","-0.008255000000000123","0.010035000000000238"
"350","-0.015384999999998428","0.008994999999999642"
"351","0.0","0.0"
"352","-0.0011999999999972033","0.0019300000000015416"
"353","-0.010527999999996495","0.0030839999999997757"
"354","-0.005839999999999179","0.006044999999999412"
"355","-0.009639999999999796","0.01926999999999997"
"356","-0.012171111111112194","0.005803333333333309"
"357","-0.013099999999996706","0.011676666666666335"
"358","-0.010674999999999102","0.004720000000000724"
"359","-0.006447499999998385","0.007260000000000932"
"360","-0.015564999999998719","0.013212499999998961"
"361","-0.01020399999999313","0.01367200000000146"
"362","-0.007132500000004427","0.009667499999999496"
"363","-0.0067349999999966785","0.023638333333333723"
"364","-0.014333999999999491","0.012771999999999294"
"365","-0.008325000000006355","0.009725000000000724"
"366","-0.019574999999998153","0.012139999999999722"
"367","0.0","0.0"
"368","-0.00811000000000206","0.0328500000000016"
"369","-0.010488333333330027","0.0319300000000012"
"370","-0.01009374999999757","0.01570750000000065"
"371","-0.6577399999999969","0.028794999999999682"
"372","-0.009865294117647035","0.010279117647058859"
"373","-0.01843684210526413","0.015945789473684035"
"374","-0.016156666666672","0.013054999999999891"
"375","-0.013699600000001623","0.006406400000000118"
"376","0.0","0.0"
"377","-0.027820000000000178","0.03959000000000046"
"378","-0.013218125000000247","0.018753125000000814"
"379","-0.022308055555555928","0.02329861111111163"
"380","-0.065048559322033","0.0926141525423726"
"381","-0.013016206896552664","0.03318689655172407"
"382","-0.013191818181820187","0.020638181818182263"
"383","-0.0343744444444434","0.08107111111111148"
"384","-0.010224999999998671","0.013255833333333614"
"385","-0.029499500000000012","0.023210999999999517"
"386","-0.36962272727272694","0.023951090909090634"
"387","-0.3399990909090898","0.01637000000000049"
"388","-0.014552068965517372","0.009969655172414054"
"389","-0.015234400000000647","0.007752799999999951"
"390","-0.010927222222222433","0.012419444444444613"
"391","-0.010737826086957183","0.015195652173912846"
"392","-0.01626428571428638","0.011432142857143113"
"393","-0.011435999999998595","0.01145999999999887"
"394","-0.010987272727272764","0.008528181818181935"
"395","-0.013666666666665606","0.008573333333333247"
"396","-0.007083750000000499","0.0063512499999998084"
"397","-0.016546153846156004","0.0126261538461541"
"398","-0.012443333333332992","0.009223333333333509"
"399","-0.0055674999999997254","0.006377500000000591"
"400","-0.0090292857142852","0.01052857142857176"
"401","-0.003682000000000585","0.006590999999999525"
"402","-0.0191650000000001","0.009037499999999365"
"403","-0.011507142857145223","0.004580000000000695"
"404","-0.003696666666664091","0.010201666666665924"
"405","-0.012095714285711625","0.006117142857144232"
"406","-0.0101659999999967","0.005353999999997683"
"407","-0.007848749999999072","0.006796250000000725"
"408","-0.007557142857139963","0.007549999999999406"
"409","-0.013976666666667685","0.011101111111111648"
"410","-0.013404444444446995","0.011304444444443599"
"411","-0.013736086956520264","0.00815565217391322"
"412","-0.01624470588235487","0.013466470588235612"
"413","-0.018074736842105733","0.012175789473684367"
"414","-0.8321653571428571","0.259171428571429"
"415","-0.0360003225806425","0.021533548387096854"
"416","-1.2975361363636344","0.06341886363636405"
"417","-0.010981555555554854","0.01350377777777783"
"418","-1.0097916666666666","0.16869428571428577"
"419","-0.04698355029585713","0.05676171597633119"
"420","-0.011401935483870456","0.016460967741935697"
"421","-0.3938299999999998","0.756381"
"422","-0.014562500000000256","0.010847500000000565"
"423","0.0","0.0"
"424","-0.016440000000002186","0.03013600000000096"
"425","-0.021332903225805847","0.030684193548387088"
"426","-0.02098352941176346","0.0633411764705892"
"427","-0.025252156862745886","0.03570745098039234"
"428","-0.03254806451612992","0.042567741935483794"
"429","-0.022793103448276338","0.01926482758620649"
"430","-0.07465714285714269","0.052791428571429676"
"431","-0.01702000000000048","0.014912500000000328"
"432","-0.03405428571428563","0.032305000000000916"
"433","-0.017252142857142667","0.018392142857142905"
"434","-0.020498749999999788","0.01597375000000012"
"435","-0.018669999999999475","0.00712000000000117"
"436","-0.020785000000000053","0.008963333333333287"
"437","-0.012970000000000445","0.008283333333333864"
"438","-0.012350000000000468","0.016503333333332884"
"439","-0.018050000000003525","0.008843333333334277"
"440","-0.01648700000000005","0.00945799999999899"
"441","-0.024509999999999366","0.010055000000001257"
"442","-0.017201999999997497","0.013197999999999155"
"443","-0.014352000000002363","0.007624000000001274"
"444","-0.01725428571428722","0.008312857142856598"
"445","-0.012695999999998264","0.010827000000000808"
"446","-0.005549999999997723","0.013884999999998371"
"447","-0.006844999999998436","0.00764999999999727"
"448","-0.003496666666670478","0.005906666666666875"
"449","-0.022025000000002848","0.008879999999999555"
"450","-0.010204999999999131","0.006972500000002491"
"451","-0.007261999999999347","0.007796000000001158"
"452","-0.009733999999997422","0.01217800000000011"
"453","-0.013920999999999139","0.007007000000000119"
"454","-0.013722857142857339","0.006392142857143211"
"455","-0.010835263157892353","0.00759947368421041"
"456","-0.013162999999997283","0.005885999999998148"
"457","-0.019560833333329697","0.008650000000000269"
"458","-0.01830499999999713","0.017714375000000837"
"459","-0.012590000000004764","0.011438749999999498"
"460","-0.012370000000004211","0.009213750000000687"
"461","-0.0111890740740724","0.020817592592592596"
"462","-0.07724415584415567","0.09116558441558416"
"463","-0.014181111111113075","0.018688518518518268"
"464","-0.01068859999999944","0.020117400000000316"
"465","-0.023233493975903664","0.020467831325301302"
"466","-0.02063735849056568","0.02218811320754736"
"467","-0.012369999999997994","0.026161249999999914"
"468","-0.011744999999990569","0.010059999999995739"
"469","-0.012050555555554688","0.011618333333334027"
"470","-0.014819999999999944","0.07655999999999707"
"471","-0.01665166666666651","0.042623333333333825"
"472","-0.035356153846153794","0.02518000000000078"
"473","-0.02446062499999957","0.011397500000000615"
"474","-0.03110933333333404","0.03737600000000055"
"475","-0.030808125000000575","0.026145312499999518"
"476","-0.02264227272727316","0.019076818181817987"
"477","-0.03262083333333473","0.023837916666666754"
"478","-0.02471249999999987","0.019828500000000027"
"479","-0.01608714285714135","0.018112142857142594"
"480","0.0","0.0"
"481","-0.008602499999998514","0.022707499999999214"
"482","-0.01078857142857156","0.007204285714285013"
"483","-0.01226500000000108","0.009852500000000042"
"484","-0.014060000000004772","0.01094166666666574"
"485","-0.006607499999998101","0.011985000000001467"
"486","-0.052360000000000184","0.015260000000001384"
"487","-0.012748333333332104","0.011414999999999509"
"488","-0.008960000000001855","0.010800000000000884"
"489","-0.007864999999995348","0.012064999999997994"
"490","-0.0037399999999934153","0.0020100000000020657"
"491","-0.019120000000000914","0.011912500000002879"
"492","-0.0096757142857129","0.0037014285714295375"
"493","-0.021891428571429117","0.01806857142857053"
"494","-0.009624999999999773","0.009452500000001862"
"495","-0.0075385714285707605","0.00957142857142758"
"496","-0.014998000000001354","0.011027999999998882"
"497","-0.019584615384615107","0.012514615384616033"
"498","-0.017045000000003085","0.009119999999999942"
"499","-0.01178599999999932","0.007748000000000132"
"500","-0.007533333333333777","0.005033999999999849"
"501","-1.4101317647058798","0.18880058823529358"
"502","-0.010932222222218494","0.007338888888889351"
"503","-0.009890769230770284","0.008549999999999888"
"504","-0.02237190476190522","0.008441904761904576"
"505","-0.014186521739129826","0.01423086956521742"
"506","-0.01244941176470437","0.01123941176470462"
"507","-0.030069999999996225","0.01055818181818179"
"508","-0.9732456521739116","0.2820676811594202"
"509","-0.018166666666668146","0.013975151515151586"
"510","-0.018725806451613383","0.026071935483870795"
"511","-0.024619230769230373","0.02310923076923097"
"512","-0.0261005882352922","0.03315941176470507"
"513","-0.03008000000000007","0.03141724137931026"
"514","-0.04230538461538039","0.05338538461538424"
"515","-0.005109999999994841","0.04838499999999968"
"516","0.0","0.0"
"517","-0.014794999999999947","0.15916500000000156"
"518","-0.029491666666666878","0.034894999999999975"
"519","-0.02972772727272697","0.02227318181818173"
"520","-0.044541999999999964","0.05952228571428567"
"521","-0.03738531249999977","0.04283718750000032"
"522","-0.02455222222222216","0.031843333333333966"
"523","-0.025386190476190253","0.02550571428571368"
"524","-0.02197464285714152","0.02283071428571391"
"525","-0.02280333333333316","0.026433888888889437"
"526","-0.010125714285714136","0.019339285714285687"
"527","-0.01918400000000169","0.016002000000001005"
"528","-0.011561428571423806","0.015722857142857243"
"529","-0.012020000000003694","0.009556250000000599"
"530","-0.021030000000000753","0.011759999999999975"
"531","-0.018150769230768853","0.016709999999998688"
"532","-0.008843333333332894","0.01213666666666708"
"533","-0.014981764705882568","0.01279647058823569"
"534","-0.011411764705882507","0.01182647058823563"
"535","-0.012237500000001825","0.010485000000000669"
"536","-0.01621111111111241","0.005145555555555761"
"537","-0.020819999999999957","0.019242307692307257"
"538","-0.011386999999998437","0.017941000000000075"
"539","-0.008555384615383205","0.011786923076923946"
"540","-0.02754333333333392","0.02040000000000101"
"541","-0.015109166666667543","0.008407499999999382"
"542","-0.017904545454544906","0.013693636363636973"
"543","-0.009613750000000643","0.015421249999998832"
"544","-0.01862444444444438","0.016065555555555652"
"545","-0.013654545454543345","0.008119090909090687"
"546","-0.01935666666666691","0.017459999999998626"
"547","-0.008722000000001628","0.006286000000000768"
"548","-0.007109285714284803","0.005069999999999654"
"549","-0.006399999999999295","0.00599857142857171"
"550","-0.009609230769234282","0.012943076923076382"
"551","-0.01843999999999942","0.009565833333332682"
"552","-0.015371000000004641","0.008754000000000772"
"553","-0.012367083333334842","0.022072499999999867"
"554","-0.015563235294117687","0.009862941176470652"
"555","-0.016596867469878446","0.011449759036144463"
"556","-0.01635857142857171","0.018200317460317552"
"557","-0.03649066666666651","0.04875733333333324"
"558","-0.02914500000000026","0.03210714285714238"
"559","-0.04352605263157877","0.029686315789473422"
"560","-0.03833959183673304","0.02936306122448967"
"561","-0.03519333333333287","0.08811444444444423"
"562","-0.04656714285714055","0.03613999999999962"
"563","0.0","0.0"
"564","-0.0057400000000003","-0.004190000000001248"
"565","-0.019572222222222265","0.0016088888888889025"
"566","-0.04407519999999991","0.03282480000000063"
"567","-0.08587869565217197","0.038779130434782406"
"568","-0.0626623076923066","-0.0019807692307691237"
"569","-0.024166923076922177","0.0035907692307699354"
"570","-0.027235625000001096","-0.00161124999999962"
"571","-0.37933526315789406","0.11285368421052654"
"572","-0.014632941176470737","0.008912352941176368"
"573","-0.021111987577639088","0.00512788819875793"
"574","-0.01437400000000082","0.006493000000000038"
"575","-0.011448181818178617","0.0024145454545448012"
"576","-0.01065666666666587","0.017662222222220296"
"577","-0.03385250000000095","-0.009699999999998266"
"578","-0.018292272727273164","0.006926818181817881"
"579","-0.007319999999999993","0.0032641666666665494"
"580","-0.019272500000001358","0.011703750000000124"
"581","-0.016077692307693344","0.01451692307692335"
"582","-0.013476153846153895","0.006245384615383751"
"583","-0.006081250000001148","0.0017612499999999365"
"584","-0.012870952380952514","0.0070866666666661885"
"585","-0.00851749999999818","0.00128375000000025"
"586","-0.0076349999999993185","-1.8833333333242072E-4"
"587","-0.010513076923076552","0.01031846153846061"
"588","-0.7598500000000018","-0.18745697674418624"
"589","-0.01631913043478205","-0.0033795652173915685"
"590","-0.014769999999999329","-0.005718999999999852"
"591","-0.009270714285713768","0.010667142857143017"
"592","-0.011555000000001314","0.0031829999999985147"
"593","-0.041001818181818805","0.006784545454545049"
"594","-0.011912413793103298","-0.0018282758620690902"
"595","-0.013413750000000372","-0.004207916666666052"
"596","-0.010348421052629115","-0.0012468421052628884"
"597","-0.012125714285713534","-0.008546785714285576"
"598","-0.012793636363637456","-0.004991818181818305"
"599","-0.010350606060607484","-0.008026060606059923"
"600","-0.011725492957746667","-0.007624647887324163"
"601","-0.01027360360360441","-0.008860270270270363"
"602","-0.020386164383559738","-0.004609726027397219"
"603","-0.01892016666666573","-0.007392500000000209"
"604","-0.023907352941176394","-0.022022647058823647"
"605","-0.02297230769230633","0.0032628205128203327"
"606","-0.05941210526315855","-0.01839754385964909"
"607","-0.03709370370370353","-0.018347222222222195"
"608","-0.05566545454545426","-0.015195454545453528"
"609","-0.13093000000000168","-0.09000999999999948"
"610","-0.3511799999999994","-0.33814999999999884"
"611","0.0","0.0"
"612","-0.017482666666667274","-0.023773333333332876"
"613","-0.02632470588235299","-0.02563058823529453"
"614","-0.0534630769230775","-0.06508461538461564"
"615","-0.01790333333332761","-0.023876666666669877"
"616","-0.04628454545454697","-0.03933363636363684"
"617","-0.03302119999999967","-0.021090399999999933"
"618","-0.023657222222222687","-0.025296666666666648"
"619","-0.026575000000001125","-0.03293833333333396"
"620","-0.017493333333333066","-0.014455555555555024"
"621","-0.010701428571429463","-0.01208285714285852"
"622","-0.009997142857144021","-0.01107714285714323"
"623","-0.006361111111111089","-0.005901111111112319"
"624","-0.013630000000000564","-0.010340000000000061"
"625","-0.0188350000000006","-0.00827125000000084"
"626","-0.015477499999998923","-0.007138749999999305"
"627","-0.011895000000000877","-0.006222500000000686"
"628","-0.008445000000001812","-0.004970000000000141"
"629","-0.009503333333327646","-0.0047933333333366095"
"630","-0.056469999999997356","-0.03839999999999577"
"631","-0.011680000000003687","-0.003862500000001212"
"632","-0.017236666666664274","-0.0111833333333351"
"633","-0.015349999999994424","-0.02700500000000261"
"634","-0.012370999999998845","-0.0201620000000009"
"635","-0.01036909090909045","-0.011751818181819312"
"636","-0.021146666666667438","-0.016782222222223215"
"637","-0.02073299999999918","-0.016675000000000394"
"638","-0.012892500000000418","-0.007439999999999447"
"639","-0.027454166666666186","-0.032025833333332976"
"640","-0.028353846153844568","-0.015575384615385265"
"641","-0.047513333333331666","-0.05196333333333462"
"642","-0.019902352941176187","-0.015221764705881213"
"643","-0.033659999999999475","-0.04652133333333429"
"644","-0.011539999999996553","-0.011040000000000725"
"645","-0.03530266666666459","-0.017895999999999173"
"646","-0.02399148148148074","-0.008538888888889318"
"647","-0.012461428571425551","-0.01039448979591899"
"648","-0.012932302631579424","-0.01281881578947376"
"649","-0.017530222222222214","-0.01970711111111064"
"650","-0.012256595744681418","-0.02015659574468062"
"651","-0.054310000000003335","-0.05845400000000005"
"652","-0.030175000000000486","-0.028006363636364107"
"653","-0.029107058823528268","-0.04882725490196103"
"654","-0.022496831683168374","-0.03864831683168333"
"655","-0.0351730107526894","-0.03726430107526858"
"656","-0.004940000000004829","-0.00782999999999845"
"657","-0.05318125000000151","-0.06201374999999931"
"658","0.0","0.0"
"659","-0.018016666666663017","-0.01569666666666573"
"660","-0.019901428571425277","-0.01304571428571474"
"661","0.0","0.0"
"662","-0.01828272727273098","-0.020929999999999893"
"663","-0.02216176470588253","-0.02457411764705785"
"664","-0.02011300000000018","-0.016936499999999556"
"665","-0.021384444444443516","-0.013610000000000295"
"666","-0.00863500000000128","-0.01364000000000054"
"667","-0.00618599999999816","-0.01849600000000038"
"668","-0.0063939999999995225","-0.019955999999999106"
"669","-0.01107999999999798","-0.00569999999999915"
"670","-0.002886666666667518","-0.012609999999999863"
"671","-0.014866666666662809","-0.00395000000000086"
"672","-0.012346666666664655","-0.01817333333333219"
"673","-0.03311000000000419","-0.004929999999999879"
"674","0.0","0.0"
"675","-0.028780000000001138","-0.012659999999995009"
"676","-0.017564999999999387","-0.012662499999999355"
"677","-0.005996666666663468","-0.006383333333332075"
"678","-0.01664599999999723","-0.011692000000000036"
"679","-0.02587000000000117","-0.04107500000000286"
"680","-0.008940000000001192","-0.0051240000000014165"
"681","-0.0020899999999954844","-0.0081999999999951"
"682","-0.008375999999999805","-0.009049999999999869"
"683","-0.007579999999998676","-0.009085999999998507"
"684","-0.007680000000002944","-0.01010166666666675"
"685","-0.006991428571428823","-0.011844285714285465"
"686","-0.009074999999998093","-0.007788333333333952"
"687","-0.018382222222223434","-0.006798888888890057"
"688","-0.006325999999999254","-0.008339000000000141"
"689","-0.12417999999999978","-0.13452199999999764"
"690","-0.04065750000000001","-0.0865424999999993"
"691","-0.0046399999999948704","-0.015240000000000364"
"692","-0.030823333333335274","-0.008839999999999293"
"693","-0.015285000000002213","-0.007662500000001238"
"694","-0.03914625000000053","-0.021435000000000166"
"695","-0.013358857142857313","-0.015975714285714662"
"696","-0.01850636363636291","-0.0318970454545451"
"697","-0.02150627906976733","-0.03330232558139507"
"698","-0.0207201515151509","-0.019281515151515334"
"699","-0.024022873563217577","-0.024144597701149555"
"700","-0.032697199999999496","-0.03168520000000022"
"701","-0.031131864406779255","-0.039251694915254494"
"702","-0.03226957446808521","-0.050844893617021374"
"703","0.0","0.0"
"704","0.0","0.0"
"705","0.0","0.0"
"706","-0.001300000000000523","-0.026310000000002276"
"707","-0.025352999999999425","-0.023123999999998902"
"708","-0.008285000000001208","-0.02063333333333321"
"709","-0.017480625000003025","-0.028094375000000227"
"710","-0.01213749999999969","-0.019673124999999736"
"711","-0.019498888888889867","-0.019055555555554174"
"712","-0.04283250000000116","-0.035380000000000855"
"713","-0.02175333333333107","-0.018238333333333284"
"714","-0.014500000000001734","-0.01360666666666314"
"715","-0.024569999999999554","-0.016259230769229853"
"716","-2.49999999997641E-4","-0.004934999999996137"
"717","-0.018035000000004686","-0.010075000000002277"
"718","-0.01584666666666834","-0.011613333333331846"
"719","-0.013635999999999981","-0.014609999999999701"
"720","-0.05465000000000941","-0.008720000000003836"
"721","0.0","0.0"
"722","0.0","0.0"
"723","0.0","0.0"
"724","0.0","0.0"
"725","-0.008690000000001419","-0.003950000000001452"
"726","0.0","0.0"
"727","-0.022780000000004463","-0.05027000000000115"
"728","0.0","0.0"
"729","-0.009062499999997087","-0.01724999999999799"
"730","-0.006754999999999474","-0.009808333333332678"
"731","-0.005346666666667943","-0.006713333333331424"
"732","-0.007614999999997707","-0.0133900000000029"
"733","-0.017185000000001338","-0.008144999999998959"
"734","-0.020447500000001284","-0.016650000000001164"
"735","-0.010957500000003506","-0.008812500000001222"
"736","-0.01852444444444422","-0.007490000000000268"
"737","-0.01163461538461628","-0.008670769230768918"
"738","-0.008955999999999164","-0.010345999999999833"
"739","-0.007520769230771189","-0.009097692307691956"
"740","-0.016676666666667","-0.011400666666666837"
"741","-0.01948444444444735","-0.016187777777778776"
"742","-0.06492250000000865","-0.043902499999998845"
"743","-0.1143499999999997","-0.1328557142857142"
"744","-0.015699803921566457","-0.01671529411764685"
"745","-0.015956060606061907","-0.01837212121212094"
"746","-0.014156915887850247","-0.018492429906542224"
"747","-0.017300379746835674","-0.05507405063291159"
"748","-0.01732609756097555","-0.019920000000000045"
"749","-0.029793000000005065","-0.06289600000000065"
"750","0.0","0.0"
"751","0.0","0.0"
"752","0.0","0.0"
"753","0.0","0.0"
"754","-0.013345000000000353","-0.01380928571428619"
"755","-0.017827500000000107","-0.023895000000001332"
"756","-0.027441764705882637","-0.014363529411764083"
"757","-0.01912727272727272","-0.014383636363636366"
"758","-0.016664166666666997","-0.01253499999999974"
"759","-0.012633749999998889","-0.009255625000000434"
"760","-0.028338333333333427","-0.037279166666666676"
"761","-0.012012380952380938","-0.004030476190475696"
"762","-0.8455178260869581","-0.18482304347826134"
"763","-0.010731250000000081","-0.006958125000000148"
"764","-0.013864999999998684","-0.019341250000000088"
"765","-0.020222500000000032","-0.012413750000000334"
"766","-0.007893333333330569","-0.015083333333335483"
"767","0.0","0.0"
"768","-0.009549999999997283","-0.004529999999995482"
"769","0.0","0.0"
"770","-0.007310000000000372","-0.005135000000006329"
"771","0.0","0.0"
"772","-0.004586666666668293","-0.008656666666669347"
"773","-0.010037499999999255","-0.008702499999994728"
"774","-0.00782999999999845","-0.011059999999993408"
"775","-0.006579999999999586","-0.001089999999997815"
"776","-0.013964999999998895","-0.008930000000006544"
"777","-0.006970000000002585","-0.013260000000002492"
"778","-0.006354999999999222","-0.014414999999999623"
"779","-0.010380000000002573","-0.010030000000005165"
"780","-0.016130000000003974","-0.023350000000000648"
"781","-0.002100000000002211","-0.002855000000000274"
"782","-0.017570000000006303","-0.009839999999996962"
"783","-0.010539999999998884","-0.02452000000000254"
"784","-0.005859999999998422","-0.002599999999997493"
"785","-0.012350000000012074","-0.006619999999998072"
"786","-0.0089566666666722","-0.007373333333331307"
"787","-0.23055000000002224","-0.1707800000000077"
"788","-0.037279999999998384","-0.03092799999999869"
"789","-0.008119999999991023","-0.005775000000006969"
"790","-0.012387999999995713","-0.016821000000000197"
"791","-0.016630000000006362","-0.018567272727270667"
"792","-0.00787517241379168","-0.010443965517241754"
"793","0.0","0.0"
"794","-0.0185794736842104","-0.02320736842105232"
"795","-1.1598212307692306","-0.14693476923076923"
"796","-0.02350250000000287","-0.025281250000003475"
"797","-0.005775000000006969","-0.005929999999999325"
"798","0.0","0.0"
"799","0.0","0.0"
"800","0.0","0.0"
"801","-0.03377375000000127","-0.025755000000001083"
"802","-0.017249142857142883","-0.012528571428571564"
"803","-0.01500620689655175","-0.012641034482757716"
"804","-0.013325000000000732","-0.019980263157894963"
"805","-0.010374814814815544","-0.01101518518518358"
"806","-0.015143749999993794","-0.009562499999998586"
"807","-0.0148688888888885","-0.012353333333333043"
"808","-0.27014304347826007","-0.6609265217391306"
"809","-0.005092000000000496","-0.00769899999999879"
"810","-0.0065919999999991315","-0.00453600000000165"
"811","-0.01191722222222206","-0.00886444444444439"
"812","-0.019101666666665906","-0.01010500000000055"
"813","0.0","0.0"
"814","-0.0025600000000025602","-0.0044699999999977535"
"815","-0.0035500000000006082","-0.008550000000003166"
"816","-0.017489999999999856","-0.009636666666665406"
"817","-0.0035500000000017926","-0.007653333333330181"
"818","-0.004875999999995884","-0.008435999999997534"
"819","-0.012199999999999989","-0.005539999999996326"
"820","0.0","0.0"
"821","0.0","0.0"
"822","0.0","0.0"
"823","0.0","0.0"
"824","0.0","0.0"
"825","0.0","0.0"
"826","0.0","0.0"
"827","0.0","0.0"
"828","0.0","0.0"
"829","0.0","0.0"
"830","0.0","0.0"
"831","0.0","0.0"
"832","0.0","0.0"
"833","-0.013955000000002826","-0.008040000000001157"
"834","0.0","0.0"
"835","-0.008609999999990237","-3.4999999999740794E-4"
"836","-0.002960000000001628","-0.01350999999999658"
"837","0.0","0.0"
"838","0.0","0.0"
"839","-0.008494615384613815","-0.012334615384614377"
"840","0.0","0.0"
"841","-0.027547777777777407","-0.06536000000000068"
"842","-0.01226785714285837","-0.03254499999999995"
"843","-0.021026666666666454","-0.00864555555555392"
"844","-0.018096249999997482","-0.008244999999999614"
"845","0.0","0.0"
"846","0.0","0.0"
"847","0.0","0.0"
"848","-0.009212857142857038","-0.012921428571427132"
"849","-0.03678428571428562","-0.01517857142857082"
"850","-0.019927142857142716","-0.021607500000000508"
"851","-0.0067561386138625","-0.011347128712871624"
"852","-0.015142307692307792","-0.009784615384614444"
"853","-0.017435555555553525","-0.022102222222223133"
"854","-0.06290749999999834","-0.020567499999998518"
"855","-0.04888500000000059","-0.03660666666666579"
"856","-0.010261999999995908","-0.026194000000000984"
"857","-0.014382500000000853","-0.011200000000000543"
"858","-0.01899749999999978","-0.017227500000000617"
"859","-0.004489999999996996","-0.010875000000002188"
"860","-0.004624999999990109","-0.010900000000003018"
"861","-0.0018749999999965183","-0.0032949999999978274"
"862","-0.0029866666666649166","-0.015843333333331582"
"863","-0.008139999999997372","-0.0077750000000058606"
"864","0.0","0.0"
"865","0.0","0.0"
"866","0.0","0.0"
"867","0.0","0.0"
"868","0.0","0.0"
"869","0.0","0.0"
"870","0.0","0.0"
"871","0.0","0.0"
"872","0.0","0.0"
"873","-0.008689999999994313","-0.018040000000006273"
"874","-0.0028599999999983083","-0.00544999999999618"
"875","-0.014034999999999798","-0.006425000000000125"
"876","-7.399999999933016E-4","-3.299999999981651E-4"
"877","0.0","0.0"
"878","0.0","0.0"
"879","0.0","0.0"
"880","0.0","0.0"
"881","-0.009425000000000239","-0.01406499999999511"
"882","-0.0036439999999998917","-0.008629999999998006"
"883","-0.006734999999999047","-0.004844999999995991"
"884","-1.9999999999242846E-4","-0.007110000000011496"
"885","-0.014216666666669653","-0.01295000000000357"
"886","-0.010794999999999888","-0.013195000000000512"
"887","0.0","0.0"
"888","0.0","0.0"
"889","0.0","0.0"
"890","-0.017653076923076803","-0.019235384615383346"
"891","0.0","0.0"
"892","0.0","0.0"
"893","0.0","0.0"
"894","0.0","0.0"
"895","0.0","0.0"
"896","0.0","0.0"
"897","0.0","0.0"
"898","-0.005238000000000654","-0.004892000000000962"
"899","-0.010175999999999874","-0.015576000000005762"
"900","0.0","0.0"
"901","-0.007650000000001001","-0.048625999999998726"
"902","-0.0077879999999993284","-0.0046120000000030355"
"903","-0.013773636363636528","-0.01480454545454341"
"904","-0.007905000000002715","-0.023450000000003968"
"905","-0.009369999999996992","-0.023709999999994125"
"906","0.0","0.0"
"907","0.0","0.0"
"908","0.0","0.0"
"909","0.0","0.0"
"910","0.0","0.0"
"911","-0.007739999999998304","-0.01147500000000079"
"912","-0.0020699999999962415","-3.300000000052705E-4"
"913","-0.0022599999999997067","-0.009300000000003195"
"914","-0.005599999999994054","-0.0030299999999954252"
"915","-0.004639999999999607","-0.007456666666667407"
"916","-0.00350999999999857","-0.003380000000007044"
"917","-0.004150000000006315","-0.009369999999996992"
"918","0.0","0.0"
"919","0.0","0.0"
"920","0.0","0.0"
"921","-0.005299999999998306","-0.004659999999994113"
"922","-0.007770000000000721","-0.0024300000000015607"
"923","-0.012830000000001007","-0.009929999999997108"
"924","-0.0053828571428543425","-0.0035514285714291255"
"925","-0.004475625000000427","-0.004573749999999599"
"926","-0.006629130434781725","-0.0046939130434788135"
"927","-0.02023250000000054","-0.008217500000001543"
"928","-0.011063749999998151","-0.008383749999999246"
"929","-0.014489999999995007","-0.0020999999999986585"
"930","-0.03543999999997993","-0.0024000000000086175"
"931","-0.016845000000010657","-0.03257999999999939"
"932","0.0","0.0"
"933","-0.008886666666667745","-0.01149166666666801"
"934","-0.011941999999996256","-0.005770000000001119"
"935","-0.010885999999999285","-0.005842000000001235"
"936","-0.014523333333332604","-0.004662222222222567"
"937","-0.015591999999999757","-0.01102559999999869"
"938","0.0","0.0"
"939","0.0","0.0"
"940","0.0","0.0"
"941","0.0","0.0"
"942","-0.06738999999999962","-0.011980000000001212"
"943","-0.015340000000000843","-0.016214000000000794"
"944","-0.002722500000000405","-0.00967499999999788"
"945","-0.011417500000000302","-0.013572500000000431"
"946","-0.0059149999999945635","-0.01736499999999097"
"947","-0.03692999999999991","-0.023500000000002075"
"948","-0.017587272727272885","-0.023475454545456256"
"949","-0.016707499999999875","-0.02007687499999955"
"950","-0.01701666666666905","-0.0061633333333332985"
"951","0.0","0.0"
"952","0.0","0.0"
"953","0.0","0.0"
"954","0.0","0.0"
"955","0.0","0.0"
"956","0.0","0.0"
"957","0.0","0.0"
"958","0.0","0.0"
"959","0.0","0.0"
"960","0.0","0.0"
"961","0.0","0.0"
"962","0.0","0.0"
"963","0.0","0.0"
"964","0.0","0.0"
"965","-0.011840000000006512","-0.021230000000002747"
"966","0.0","0.0"
"967","-0.009209999999999496","-0.010095000000003296"
"968","-0.006709999999991112","-0.0036199999999908528"
"969","0.0","0.0"
"970","0.0","0.0"
"971","0.0","0.0"
"972","0.0","0.0"
"973","-0.006301764705881396","-0.009835294117646706"
"974","0.0","0.0"
"975","0.0","0.0"
"976","0.0","0.0"
"977","0.0","0.0"
"978","0.0","0.0"
"979","-0.017625000000002444","-0.00852000000000075"
"980","-0.013487500000000097","-0.016114999999997437"
"981","-0.0184519999999992","-0.011788000000001376"
"982","-0.01622749999999229","-0.018104999999998483"
"983","-0.012042000000000996","-0.024728999999999956"
"984","-0.017755000000001075","-0.014614999999999156"
"985","0.0","0.0"
"986","0.0","0.0"
"987","0.0","0.0"
"988","0.0","0.0"
"989","0.0","0.0"
"990","-0.00601999999999947","-0.14825999999999695"
"991","-0.032760000000003425","-0.05716999999999928"
"992","-0.014813333333336232","-0.03389333333333392"
"993","0.0","0.0"
"994","0.0","0.0"
"995","0.0","0.0"
"996","0.0","0.0"
"997","0.0","0.0"
"998","0.0","0.0"
"999","0.0","0.0"
"1000","0.0","0.0"
"1001","0.0","0.0"
"1002","0.0","0.0"
"1003","0.0","0.0"
"1004","0.0","0.0"
"1005","0.0","0.0"
"1006","0.0","0.0"
"1007","0.0","0.0"
"1008","0.0","0.0"
"1009","0.0","0.0"
"1010","0.0","0.0"
"1011","0.0","0.0"
"1012","0.0","0.0"
"1013","0.0","0.0"
"1014","0.0","0.0"
"1015","0.0","0.0"
"1016","0.0","0.0"
"1017","0.0","0.0"
"1018","0.0","0.0"
"1019","0.0","0.0"
"1020","0.0","0.0"
"1021","0.0","0.0"
"1022","0.0","0.0"
"1023","0.0","0.0"
"1024","0.0","0.0"
"1025","0.0","0.0"
"1026","0.0","0.0"
"1027","0.0","0.0"
"1028","0.0","0.0"
"1029","0.0","0.0"
"1030","0.0","0.0"
"1031","0.0","0.0"
"1032","0.0","0.0"
"1033","0.0","0.0"
"1034","0.0","0.0"
"1035","0.0","0.0"
"1036","0.0","0.0"
"1037","0.0","0.0"
"1038","-0.009936666666665891","-0.024259999999998172"
"1039","0.0","0.0"
"1040","0.0","0.0"
"1041","0.0","0.0"
"1042","0.0","0.0"
"1043","0.0","0.0"
"1044","0.0","0.0"
"1045","0.0","0.0"
"1046","0.0","0.0"
"1047","0.0","0.0"
"1048","0.0","0.0"
"1049","0.0","0.0"
"1050","0.0","0.0"
"1051","0.0","0.0"
"1052","0.0","0.0"
"1053","0.0","0.0"
"1054","0.0","0.0"
"1055","0.0","0.0"
"1056","0.0","0.0"
"1057","0.0","0.0"
"1058","0.0","0.0"
"1059","0.0","0.0"
"1060","0.0","0.0"
"1061","0.0","0.0"
"1062","0.0","0.0"
"1063","0.0","0.0"
"1064","0.0","0.0"
"1065","0.0","0.0"
"1066","0.0","0.0"
"1067","0.0","0.0"
"1068","0.0","0.0"
"1069","0.0","0.0"
"1070","0.0","0.0"
"1071","0.0","0.0"
"1072","0.0","0.0"
"1073","0.0","0.0"
"1074","0.0","0.0"
"1075","0.0","0.0"
"1076","0.0","0.0"
"1077","0.0","0.0"
"1078","0.0","0.0"
"1079","0.0","0.0"
"1080","0.0","0.0"
"1081","0.0","0.0"
"1082","0.0","0.0"
"1083","0.0","0.0"
"1084","0.0","0.0"
"1085","0.0","0.0"
"1086","0.0","0.0"
"1087","-0.3945600000000007","-0.18048250000000365"
"1088","0.0","0.0"
"1089","0.0","0.0"
"1090","0.0","0.0"
"1091","0.0","0.0"
"1092","0.0","0.0"
"1093","0.0","0.0"
"1094","0.0","0.0"
"1095","0.0","0.0"
"1096","0.0","0.0"
"1097","0.0","0.0"
"1098","0.0","0.0"
"1099","0.0","0.0"
"1100","0.0","0.0"
"1101","0.0","0.0"
"1102","0.0","0.0"
"1103","0.0","0.0"
"1104","0.0","0.0"
"1105","0.0","0.0"
"1106","0.0","0.0"
"1107","0.0","0.0"
"1108","0.0","0.0"
"1109","0.0","0.0"
"1110","0.0","0.0"
"1111","0.0","0.0"
"1112","0.0","0.0"
"1113","0.0","0.0"
"1114","0.0","0.0"
"1115","0.0","0.0"
"1116","0.0","0.0"
"1117","0.0","0.0"
"1118","0.0","0.0"
"1119","0.0","0.0"
"1120","0.0","0.0"
"1121","0.0","0.0"
"1122","0.0","0.0"
"1123","0.0","0.0"
"1124","0.0","0.0"
"1125","0.0","0.0"
"1126","0.0","0.0"
"1127","0.0","0.0"
"1128","0.0","0.0"
"1129","0.0","0.0"
"1130","0.0","0.0"
"1131","0.0","0.0"
"1132","0.0","0.0"
"1133","0.0","0.0"
"1134","0.0","0.0"
"1135","0.0","0.0"
"1136","0.0","0.0"
"1137","0.0","0.0"
"1138","0.0","0.0"
"1139","0.0","0.0"
"1140","0.0","0.0"
"1141","0.0","0.0"
"1142","0.0","0.0"
"1143","0.0","0.0"
"1144","0.0","0.0"
"1145","0.0","0.0"
"1146","0.0","0.0"
"1147","0.0","0.0"
"1148","0.0","0.0"
"1149","0.0","0.0"
"1150","0.0","0.0"
"1151","0.0","0.0"
"1152","0.0","0.0"
"1153","0.0","0.0"
"1154","0.0","0.0"
"1155","0.0","0.0"
"1156","0.0","0.0"
"1157","0.0","0.0"
"1158","0.0","0.0"
"1159","0.0","0.0"
"1160","0.0","0.0"
"1161","0.0","0.0"
"1162","0.0","0.0"
"1163","0.0","0.0"
"1164","0.0","0.0"
"1165","0.0","0.0"
"1166","0.0","0.0"
"1167","0.0","0.0"
"1168","0.0","0.0"
"1169","0.0","0.0"
"1170","0.0","0.0"
"1171","0.0","0.0"
"1172","0.0","0.0"
"1173","0.0","0.0"
"1174","0.0","0.0"
