"cell_id","acc_x","acc_y"
"0","0.0","0.0"
"1","0.0","0.0"
"2","0.0","0.0"
"3","0.0","0.0"
"4","0.0","0.0"
"5","0.0","0.0"
"6","0.0","0.0"
"7","0.0","0.0"
"8","0.0","0.0"
"9","0.0","0.0"
"10","0.0","0.0"
"11","0.0","0.0"
"12","0.0","0.0"
"13","0.0","0.0"
"14","0.0","0.0"
"15","0.0","0.0"
"16","0.0","0.0"
"17","0.0","0.0"
"18","0.0","0.0"
"19","0.0","0.0"
"20","0.0","0.0"
"21","0.0","0.0"
"22","0.0","0.0"
"23","0.0","0.0"
"24","0.0","0.0"
"25","0.0","0.0"
"26","0.02921307692307697","0.00405076923076926"
"27","0.015882500000001798","0.004082500000000017"
"28","0.018822222222222566","0.03846777777777774"
"29","0.003650000000000375","0.0036399999999996435"
"30","0.0","0.0"
"31","0.0","0.0"
"32","0.017487999999994487","0.019663999999999904"
"33","0.011294000000000892","0.0188600000000001"
"34","0.01573090909091041","0.012515454545454531"
"35","0.009844000000001074","0.004895999999999989"
"36","0.01591666666666356","0.01228933333333334"
"37","0.011021081081080764","0.010911621621621612"
"38","0.017437500000000956","0.013796666666666646"
"39","0.009145499999995366","0.006457999999999994"
"40","0.015383749999999807","0.01224500000000002"
"41","0.015418461538462661","0.027764615384615388"
"42","0.006187500000002011","0.005466250000000006"
"43","0.008285000000002185","0.009742333333333334"
"44","0.008088750000001088","0.020078750000000013"
"45","0.0","0.0"
"46","0.0","0.0"
"47","0.0","0.0"
"48","0.0","0.0"
"49","0.0","0.0"
"50","0.0","0.0"
"51","0.0","0.0"
"52","0.0","0.0"
"53","0.0","0.0"
"54","0.0","0.0"
"55","0.0","0.0"
"56","0.0","0.0"
"57","0.0","0.0"
"58","0.0","0.0"
"59","0.0","0.0"
"60","0.0","0.0"
"61","0.0","0.0"
"62","0.0","0.0"
"63","0.0","0.0"
"64","0.0","0.0"
"65","0.0","0.0"
"66","0.0","0.0"
"67","0.0","0.0"
"68","0.0","0.0"
"69","0.0","0.0"
"70","0.0","0.0"
"71","0.0","0.0"
"72","0.007159999999998945","0.008459999999999912"
"73","0.0","0.0"
"74","0.0037099999999981037","0.00951000000000013"
"75","0.012962499999998656","0.028429999999999844"
"76","0.01729999999999876","0.027460000000000484"
"77","0.0","0.0"
"78","0.011758333333334056","0.010676666666666815"
"79","0.01710400000000334","0.02252999999999994"
"80","0.0016899999999964166","0.020199999999999996"
"81","0.051474999999996385","0.049984999999999724"
"82","0.002189999999998804","0.010669999999999735"
"83","0.03493333333332771","0.041390000000000114"
"84","0.019377500000009817","0.025938749999999955"
"85","0.04023043478260715","0.02578086956521736"
"86","0.037472903225808214","0.026442258064516076"
"87","0.018279999999999127","0.019619090909090975"
"88","0.014365000000000804","0.02187899999999996"
"89","0.01030166666666806","0.012290000000000115"
"90","0.01412499999999736","0.01393227272727276"
"91","0.009482307692312456","0.013188461538461444"
"92","0.0070133333333378305","0.012336666666666515"
"93","0.0","0.0"
"94","0.0","0.0"
"95","0.0","0.0"
"96","0.032486666666663666","0.03764166666666657"
"97","0.008180000000002963","0.017829999999999718"
"98","0.012809999999987554","0.007119999999999571"
"99","0.0","0.0"
"100","0.0","0.0"
"101","0.0","0.0"
"102","0.011480000000002377","0.009759999999999991"
"103","0.0","0.0"
"104","0.00134999999999863","0.004830000000000112"
"105","0.01190000000000424","0.006379999999999164"
"106","0.0","0.0"
"107","0.009835000000000704","0.011870000000000047"
"108","0.0","0.0"
"109","0.007299999999997198","0.011340000000000572"
"110","0.0","0.0"
"111","0.0","0.0"
"112","0.0","0.0"
"113","0.0","0.0"
"114","0.014410000000005141","0.02768999999999977"
"115","8.599999999958641E-4","0.006139999999999368"
"116","0.004059999999995512","0.002689999999999415"
"117","0.0032099999999957163","0.003330000000000055"
"118","0.02247666666666485","0.008756666666667043"
"119","0.012773333333332934","0.009493333333332762"
"120","0.02019750000000009","0.007650000000000157"
"121","0.011502222222222573","0.018141111111110893"
"122","0.014689999999997382","0.015402000000000271"
"123","0.010681428571430729","0.013538571428571622"
"124","0.010943076923078037","0.00998538461538475"
"125","0.025929999999997122","0.02185249999999983"
"126","0.014090000000003045","0.013731666666666698"
"127","0.03599750000000057","0.03186000000000022"
"128","0.03917230769231139","0.016828461538461684"
"129","0.019376249999996098","0.02058874999999999"
"130","0.023012000000002787","0.007848000000000077"
"131","0.015040000000003115","0.014502857142857246"
"132","0.03110230769230891","0.012397692307692294"
"133","0.016050999999998795","0.010690999999999829"
"134","0.015300000000003422","0.0195025000000002"
"135","0.009894545454542936","0.017287272727272616"
"136","0.009020000000003848","0.01450799999999992"
"137","0.017121000000004473","0.025468000000000046"
"138","0.013025384615383691","0.022649230769230755"
"139","0.013675333333335022","0.015248666666666704"
"140","0.0","0.0"
"141","0.0","0.0"
"142","0.0","0.0"
"143","0.0","0.0"
"144","0.0","0.0"
"145","0.01734333333332927","0.06614999999999949"
"146","0.013124285714285986","0.005007142857142988"
"147","0.020001666666668843","0.009253333333333261"
"148","0.005320000000003766","0.005900000000000016"
"149","0.008539999999999992","0.006670000000000176"
"150","0.0","0.0"
"151","0.0","0.0"
"152","0.0","0.0"
"153","0.0","0.0"
"154","0.0","0.0"
"155","0.0","0.0"
"156","0.0","0.0"
"157","0.011360000000003367","0.0013399999999998968"
"158","0.0067500000000038085","0.0070149999999999935"
"159","0.0016999999999995907","0.002660000000000551"
"160","0.005979999999997432","0.005434999999999857"
"161","0.0058125000000011084","0.006692500000000212"
"162","0.010137142857143797","0.006747142857142967"
"163","0.007804999999999396","0.012037500000000145"
"164","0.018635000000000918","0.007230000000000292"
"165","0.007061428571427696","0.005992857142857387"
"166","0.00217999999999563","0.006999999999999229"
"167","0.0030450000000001864","0.008474999999999344"
"168","0.016210000000000946","0.020990000000000286"
"169","0.003575000000001438","0.009622500000000311"
"170","0.011974000000000729","0.00870799999999985"
"171","0.020984545454543927","0.017948181818181638"
"172","0.023153636363636047","0.029283636363636602"
"173","0.005696666666670088","0.014036666666666697"
"174","0.011823333333334555","0.014761666666666637"
"175","0.0657000000000032","0.06946500000000011"
"176","0.04460444444444375","0.03506333333333315"
"177","0.017602222222222963","0.01622555555555532"
"178","0.015351176470588257","0.021965294117646837"
"179","0.025053076923074312","0.01722846153846178"
"180","0.017045000000000244","0.01292699999999991"
"181","0.029409999999995762","0.023501999999999867"
"182","0.018199999999995952","0.022857999999999913"
"183","0.010779333333330025","0.00935999999999968"
"184","0.02240222222222125","0.0283799999999999"
"185","0.010235000000001548","0.02141499999999974"
"186","0.008563999999998373","0.016026000000000096"
"187","0.0","0.0"
"188","0.0","0.0"
"189","0.0","0.0"
"190","0.0","0.0"
"191","0.0","0.0"
"192","0.0029659999999942952","0.029048000000000584"
"193","0.009179999999998856","0.006799999999998363"
"194","0.0","0.0"
"195","0.0","0.0"
"196","0.017180000000005673","0.037653333333333094"
"197","0.021669999999995564","0.020163333333333238"
"198","0.0","0.0"
"199","0.0","0.0"
"200","0.0","0.0"
"201","0.01385499999999773","0.005425000000000679"
"202","0.007640000000000313","0.00474166666666657"
"203","0.005745000000000999","0.009147499999999198"
"204","0.004370000000001539","5.60000000000116E-4"
"205","0.007210000000000605","0.010619999999999408"
"206","0.004220000000010771","0.009439999999999671"
"207","0.007362499999999272","0.007894999999999097"
"208","0.011378000000001975","0.00788000000000011"
"209","0.005057500000004822","0.005207500000000476"
"210","0.006470000000000198","0.0036074999999997637"
"211","0.005242500000003147","0.004290000000000571"
"212","0.006006666666666642","0.0036866666666656536"
"213","0.015250000000001762","0.004283333333333417"
"214","0.009267142857144759","0.006174285714285688"
"215","0.009519999999999603","0.012660000000000338"
"216","0.012298000000001252","0.008081999999999211"
"217","0.02622000000000213","0.029065000000001007"
"218","0.0039180000000001765","0.012947999999999914"
"219","0.0467576923076906","0.02430461538461535"
"220","0.031853749999998016","0.028208749999999894"
"221","0.0","0.0"
"222","0.061524999999996055","0.08276999999999957"
"223","0.027668000000002736","0.02498400000000025"
"224","0.02059025641025541","0.019744358974359163"
"225","0.011530322580644603","0.013537096774193428"
"226","0.010836874999999857","0.02046875000000009"
"227","0.013943000000003281","0.025816000000000193"
"228","0.020636249999998135","0.019670000000000076"
"229","0.015174736842102209","0.028888421052631886"
"230","0.01340799999999831","0.015061999999999997"
"231","0.032699411764702","0.01896176470588231"
"232","0.039929999999998245","0.02416000000000018"
"233","0.044850000000004844","0.039898571428571374"
"234","0.04372999999998228","0.039029999999998566"
"235","0.0","0.0"
"236","0.003686666666666838","0.006310000000000334"
"237","0.012970000000009918","0.012989999999998503"
"238","0.022391111111109672","0.03391999999999978"
"239","0.013080000000003597","0.03253142857142929"
"240","0.00961666666666853","0.009696666666666687"
"241","0.009766666666668774","0.01040000000000004"
"242","0.01715999999999269","0.009129999999999684"
"243","0.015442857142854649","0.020881428571429033"
"244","0.00866800000000012","0.00539800000000028"
"245","0.011244000000001364","0.006743999999999773"
"246","0.012335000000000798","0.011961666666666204"
"247","0.01017800000000051","0.013846000000001269"
"248","0.002349999999998668","0.004343333333333514"
"249","0.02734999999998422","0.0027200000000000557"
"250","0.0","0.0"
"251","0.010587499999998862","0.005962500000000759"
"252","0.0069824999999994475","0.003912499999999763"
"253","0.01676199999999852","0.007440000000001135"
"254","0.0083666666666673","0.0050766666666663225"
"255","0.003053333333331428","0.0070533333333327635"
"256","0.002722499999999073","0.0046000000000003816"
"257","0.005361666666664415","0.0029883333333335926"
"258","0.021866249999997756","0.00412499999999949"
"259","0.005789090909091369","0.004428181818181317"
"260","0.005592000000000041","0.006893999999999778"
"261","0.00486249999999977","0.009174999999999933"
"262","0.005416249999997902","0.00873999999999997"
"263","0.009359999999999147","0.012242500000000156"
"264","0.010221428571428857","0.02110999999999993"
"265","0.016484999999999417","0.006599999999998829"
"266","0.013983749999999517","0.008855000000000945"
"267","0.014413725490197805","0.015556274509803911"
"268","0.039024500000000725","0.029069749999999984"
"269","0.027405714285714162","0.021237142857143558"
"270","0.00741666666667129","0.011683333333333342"
"271","0.009087857142853904","0.018394285714285554"
"272","0.023093636363638537","0.024279393939393906"
"273","0.020074545454549633","0.029206363636363974"
"274","0.01382374999999847","0.0215325000000004"
"275","0.015046250000001038","0.0072187500000002736"
"276","0.006264444444446503","0.008222222222222995"
"277","0.013054090909088762","0.01644272727272732"
"278","0.0132390000000008","0.01665399999999968"
"279","0.026742666666666536","0.023442666666667004"
"280","0.01777500000000111","0.020917222222222205"
"281","0.005313333333333503","0.009926666666665973"
"282","0.0029766666666667017","0.02261999999999927"
"283","0.012219999999994494","0.011053333333332915"
"284","0.0","0.0"
"285","0.012959999999999638","0.004120000000000346"
"286","0.010958095238094958","0.00772380952380954"
"287","0.008508333333332155","0.006991666666666656"
"288","0.016847500000002125","0.01910499999999926"
"289","0.011706666666663028","0.02882888888888877"
"290","0.0076716666666645965","0.023213333333333235"
"291","0.008905714285713628","0.007097142857142659"
"292","0.005745000000002776","0.00796000000000019"
"293","0.0050239999999973865","0.02062000000000026"
"294","0.0","0.0"
"295","0.006499999999997286","0.009070000000000059"
"296","0.00786428571428591","0.007018571428571414"
"297","0.0032659999999992808","0.002329999999999188"
"298","0.003211666666667057","0.006721666666667403"
"299","0.010598750000004209","0.006364999999999954"
"300","0.0050299999999978695","0.008100000000000662"
"301","0.009712499999999125","9.425000000002903E-4"
"302","0.0036899999999974397","0.0035519999999994666"
"303","0.004335000000001088","0.0045799999999998064"
"304","0.00441666666666644","0.00486000000000016"
"305","0.007975000000001842","0.006177499999999281"
"306","0.007625000000000881","0.007090000000000263"
"307","0.009079999999997312","0.007570000000001187"
"308","0.010229999999992856","0.009179999999998856"
"309","0.003350000000004627","6.400000000024164E-4"
"310","0.02283999999999864","0.01100000000000012"
"311","0.016616000000001206","0.01196199999999994"
"312","0.010737499999999992","0.01345333333333354"
"313","0.013849285714286452","0.010858571428571575"
"314","0.017327142857141098","0.019035714285714076"
"315","0.021312380952381426","0.021549999999999854"
"316","0.017930999999998677","0.024765000000000193"
"317","0.0","0.0"
"318","0.0221125000000022","0.028731666666666822"
"319","0.023846296296297368","0.030605925925925835"
"320","0.023106923076919264","0.013370769230769032"
"321","0.0222299999999994","0.023728571428571956"
"322","0.01745599999999854","0.014093000000000088"
"323","0.012181764705883658","0.022247647058823174"
"324","0.03353999999999644","0.022964000000000696"
"325","0.0","0.0"
"326","0.0265387499999985","0.014318750000000158"
"327","0.04787400000000162","0.04539999999999935"
"328","0.02780214285714574","0.02138571428571418"
"329","0.008077999999996477","0.012220000000000652"
"330","0.009589999999988663","0.010219999999998564"
"331","0.0","0.0"
"332","0.011220000000001309","0.005484285714285164"
"333","0.01745714285714303","0.015022857142856847"
"334","0.018514000000001828","0.02432000000000052"
"335","0.012736363636364312","0.02907318181818179"
"336","0.013292083333334018","0.017215000000000275"
"337","0.010701250000001217","0.012195000000000844"
"338","0.01676833333332972","0.020614999999999977"
"339","0.019436666666668618","0.01913999999999917"
"340","0.020990666666664975","0.011040666666666255"
"341","0.02699230769230682","0.031179230769230442"
"342","0.019628750000001194","0.032641249999999955"
"343","0.010444999999995375","0.0023766666666666936"
"344","0.011938000000001382","0.00602200000000046"
"345","0.019623333333335324","0.012236666666667043"
"346","0.009667142857144841","0.004210000000000237"
"347","0.009105714285714685","0.005872857142857616"
"348","0.011959999999999601","0.013738333333333408"
"349","0.013338571428571453","0.00846714285714383"
"350","0.004119999999996793","0.0027575000000004124"
"351","0.0020439999999993575","0.0080259999999992"
"352","0.005860000000000198","0.009165000000000312"
"353","0.004676666666661333","0.012656666666666538"
"354","0.00713749999999802","0.010866249999999633"
"355","0.008447499999997277","0.005314999999999959"
"356","0.008780000000001564","0.012105000000000032"
"357","0.00596999999999781","0.006829999999999359"
"358","0.007964999999998668","0.012017500000000236"
"359","0.013900000000001","0.014091999999999771"
"360","0.03486307692307596","0.029324615384615036"
"361","0.00443999999999356","0.019684999999999953"
"362","0.018721428571429517","0.024484285714286052"
"363","0.021039375000003524","0.018873750000000022"
"364","0.022145652173909857","0.019508260869565256"
"365","0.010613684210525401","0.00954526315789477"
"366","0.010754148936171307","0.009202978723404528"
"367","0.01593275000000034","0.01751850000000017"
"368","0.016225882352942984","0.015024117647058792"
"369","0.013008620689655298","0.019867931034482617"
"370","0.022722222222220714","0.025021851851852104"
"371","0.026130000000004355","0.026074444444444782"
"372","0.0","0.0"
"373","0.03487083333333274","0.024009166666666932"
"374","0.031571538461541045","0.02450307692307655"
"375","0.024113333333335162","0.023495999999999857"
"376","0.006771111111111876","0.010027777777777894"
"377","0.0","0.0"
"378","0.05538124999999857","0.23796041666666579"
"379","0.4091216417910448","0.14804054726368168"
"380","0.01512391304347908","0.011984347826086459"
"381","0.010282820512821754","0.0179843589743582"
"382","0.011919999999998154","0.008652500000000174"
"383","0.01211111111110953","0.013829999999999072"
"384","0.00785107142856946","0.009325357142856967"
"385","0.008577500000001237","0.01359250000000145"
"386","0.017059090909089747","0.014196363636363946"
"387","0.014848095238092591","0.010179523809523736"
"388","0.009161666666665033","0.02449499999999934"
"389","0.009909999999999157","0.0056718181818185606"
"390","0.006159230769232347","0.012776153846153885"
"391","0.040056666666668406","0.009479999999999933"
"392","0.017005000000002823","0.009362500000000384"
"393","0.01829666666666559","0.028693333333333015"
"394","0.01227749999999972","0.010193750000000001"
"395","0.004794999999997884","0.007062499999999972"
"396","0.009982857142851742","0.00744857142857163"
"397","0.0063033333333343145","0.005877777777777106"
"398","0.009801999999999112","0.010221999999999554"
"399","0.013761666666668523","0.015026666666665042"
"400","0.008479999999999896","0.0044683333333323345"
"401","0.01678833333333074","0.009206666666665106"
"402","0.012961666666670387","0.017083333333333783"
"403","0.010800000000000884","0.012496666666666082"
"404","0.015556666666667477","0.024293333333333795"
"405","0.007779090909088702","0.016754545454545487"
"406","0.010031249999999936","0.016109999999999625"
"407","0.020868333333336153","0.009831666666666905"
"408","0.34739652777778063","0.08824874999999982"
"409","0.011343400000000088","0.008307600000000477"
"410","0.021694666666667216","0.017084333333333035"
"411","0.01841699999999804","0.019864500000000083"
"412","0.013037878787873648","0.015308181818181377"
"413","0.10556351063829746","0.10921159574468065"
"414","0.15199880000000027","0.4352266666666671"
"415","0.01590129032258262","0.025409677419355327"
"416","0.013726250000000087","0.014999583333333696"
"417","0.021507123287670057","0.012261643835616138"
"418","0.11324414285714254","0.035912142857142955"
"419","0.021326206896550706","0.02312655172413785"
"420","0.03770590909091192","0.027180909090908593"
"421","0.01927999999999923","0.02439769230769251"
"422","0.035467499999995766","0.025500000000000522"
"423","0.007739999999999858","0.014594999999999914"
"424","0.014481538461538435","0.010286923076923343"
"425","0.012111428571428868","0.01155785714285708"
"426","0.011838333333333501","0.009523571428570896"
"427","0.010640156250001143","0.011780624999999878"
"428","0.006096176470587748","0.009799117647058275"
"429","0.013803703703706928","0.013011111111111183"
"430","0.00886899999999997","0.0064119999999999065"
"431","0.008281999999999812","0.008922888888888597"
"432","0.013658947368421437","0.01104934210526286"
"433","0.011286956521739624","0.009111304347826385"
"434","0.012635384615384656","0.009194230769231"
"435","0.012928717948716676","0.00882820512820496"
"436","0.014444545454545736","0.012155757575757733"
"437","0.016656363636364156","0.011675454545454045"
"438","0.02114400000000387","0.010476000000001307"
"439","0.006403333333332897","0.009645555555555537"
"440","0.004771250000001892","0.004613750000000305"
"441","0.009704999999999409","0.006786249999999772"
"442","0.0062075000000003655","0.00528000000000084"
"443","0.010188333333331911","0.0056199999999992185"
"444","0.0033588888888884424","0.006219999999999793"
"445","0.013209999999998464","0.002256666666664131"
"446","0.011018235294117861","0.0067011764705882495"
"447","0.0073825000000014756","0.006207499999999477"
"448","0.008596363636364401","0.006991818181818326"
"449","0.013373333333331535","0.006856666666667621"
"450","0.02014714285714295","0.01827571428571468"
"451","0.008201666666665849","0.011231666666667195"
"452","0.004420000000003199","0.003050000000000589"
"453","0.00488666666666562","0.006347777777777865"
"454","0.007981428571428393","0.01953714285714168"
"455","0.013993000000000677","0.01331700000000069"
"456","0.010573620689653947","0.013431724137930885"
"457","0.019615909090907217","0.016954090909090815"
"458","0.018611578947368763","0.01211315789473694"
"459","0.01744966666666462","0.011103666666666711"
"460","0.007891562499999782","0.007866562500000396"
"461","0.014018709677420171","0.01478967741935466"
"462","0.014614705882352422","0.018016470588234725"
"463","0.013750000000003284","0.020675555555554424"
"464","0.012724285714284633","0.018611428571428605"
"465","0.01932500000000014","0.028092333333333504"
"466","0.02783559999999909","0.025278000000000134"
"467","0.03243263157894429","0.02969315789473763"
"468","0.017357499999997472","0.027126249999999796"
"469","0.014596666666671846","0.04807999999999879"
"470","0.013707916666666918","0.009457916666666843"
"471","0.013105000000000033","0.03982000000000241"
"472","0.011503749999998786","0.018873958333332903"
"473","0.010205188679245062","0.012473773584905708"
"474","0.00856863999999984","0.007695600000000212"
"475","0.010604918032786835","0.010688196721311476"
"476","0.012141639344262775","0.012075409836065388"
"477","0.01006447368421063","0.012813421052631344"
"478","0.009835074626866346","0.008916716417910548"
"479","0.8628337499999995","0.06443812500000021"
"480","0.012807567567566831","0.0102986486486487"
"481","0.012201904761905863","0.007890476190475735"
"482","0.01167904761905075","0.008425714285713698"
"483","0.013689047619045542","0.01577809523809511"
"484","0.007893999999999578","0.01572399999999945"
"485","0.0074940000000005115","0.007364000000000104"
"486","0.008759999999999954","0.02084000000000093"
"487","0.003372000000000952","0.005668999999999614"
"488","0.003146249999998574","0.004802500000000709"
"489","0.0028777777777809397","0.004542222222221583"
"490","0.003998571428572818","0.006051428571428374"
"491","0.0037033333333269525","0.004423333333334038"
"492","0.002931428571429251","0.007971428571429786"
"493","0.01585999999999959","0.01127555555555462"
"494","0.006803333333332755","0.00540499999999966"
"495","0.007292666666665089","0.006838000000000003"
"496","0.008635555555555483","0.005688888888889052"
"497","0.008222105263157019","0.009182105263157513"
"498","0.007675263157895304","0.006832105263158408"
"499","0.010815555555553876","0.008819444444444121"
"500","0.014728181818182234","0.012084545454545292"
"501","0.008497826086957183","0.010316086956521068"
"502","0.011457307692308606","0.009977692307691846"
"503","0.017173461538461672","0.01605153846153871"
"504","0.02009974358974467","0.019885641025641103"
"505","0.01520374999999774","0.014164583333333702"
"506","0.023520999999999504","0.023881500000000423"
"507","0.014463913043477963","0.015693478260870603"
"508","0.012669411764706491","0.010864117647058602"
"509","0.013888421052631597","0.016453684210527012"
"510","0.018710833333334047","0.02127416666666641"
"511","0.027450666666666734","0.016786000000000457"
"512","0.010935555555557622","0.015359999999999572"
"513","0.0400753846153831","0.028569230769230323"
"514","0.02795357142857264","0.01756071428571485"
"515","0.05031000000000082","0.02973666666666593"
"516","0.0","0.0"
"517","0.014687875000000595","0.013478000000000278"
"518","0.015372941176467462","0.01841882352941143"
"519","0.029183974358974265","0.02541012820512843"
"520","0.014673559322034608","0.016977796610169342"
"521","0.014829178082191346","0.014957397260273623"
"522","0.4124178571428563","0.15259964285714275"
"523","0.010837468354431808","0.007765443037974587"
"524","0.027590256410255243","0.07985846153846164"
"525","0.010170945945947831","0.008223918918918731"
"526","0.01304460317460322","0.011962063492063522"
"527","0.011485714285715367","0.011345892857142699"
"528","0.005207567567568029","0.009288918918918884"
"529","0.01567765957446802","0.00892531914893624"
"530","0.007292093023255542","0.010432325581394921"
"531","0.006814761904761569","0.006691904761904172"
"532","0.010595208333332495","0.006285208333333496"
"533","0.00782999999999845","0.007315517241379228"
"534","0.11188388888888984","0.027331111111111243"
"535","0.00696874999999908","0.007193749999999666"
"536","0.0062872000000004395","0.005505199999999491"
"537","0.006810000000001199","0.007460952380952621"
"538","0.008398787878786434","0.00659242424242465"
"539","0.005327884615384667","0.005727307692307517"
"540","0.00777133333333353","0.007539333333333313"
"541","0.007586666666666038","0.0073276666666677905"
"542","0.006266956521738519","0.004973913043478254"
"543","0.009261111111111041","0.005883888888889367"
"544","0.006251111111114464","0.003983333333332932"
"545","0.0093939999999994","0.00822466666666628"
"546","0.011119999999999821","0.01021055555555566"
"547","0.012533636363635995","0.010495909090909967"
"548","0.006611249999995887","0.00810291666666707"
"549","0.01549043478260707","0.012645217391304165"
"550","0.0131744827586225","0.021212413793103554"
"551","0.020575454545455372","0.017897272727273098"
"552","0.006104117647058662","0.007280588235294767"
"553","0.018766666666664378","0.018963333333334848"
"554","0.01244999999999763","0.0045000000000001705"
"555","0.01776807692307887","0.011830000000000469"
"556","0.021687500000005855","0.009064999999996104"
"557","0.02480166666666624","0.024173333333333602"
"558","0.015185000000000079","0.025803333333334066"
"559","0.0778771428571393","0.07743428571428675"
"560","0.06281555555555782","0.03164333333333423"
"561","0.02602636363636567","0.03640000000000043"
"562","0.017847142857144758","0.026549999999999536"
"563","0.01751571428571757","0.03468714285714469"
"564","0.020454729729729646","0.0027081081081080857"
"565","0.02119891891891964","8.435135135130743E-4"
"566","0.03394831683168414","-0.00998999999999983"
"567","0.02237623456790089","-2.572222222222872E-4"
"568","0.019977282608696172","-9.274999999999121E-4"
"569","0.018296071428570388","2.624999999997689E-4"
"570","0.012827735849056424","5.850000000001415E-4"
"571","0.012960555555556377","-5.737777777777669E-4"
"572","0.010973269230769134","-0.003943653846154514"
"573","0.011757704918032689","-0.003071147540983764"
"574","0.011527027027027048","-0.0025570270270267232"
"575","0.012926666666666777","8.013888888887482E-4"
"576","0.018367407407406416","-0.014403148148147627"
"577","0.018224230769230684","-0.0047165384615380865"
"578","0.016658979591837503","-0.005294897959183768"
"579","0.010973846153846467","-3.5333333333307463E-4"
"580","0.01298941176470601","-0.003976274509803996"
"581","0.009830256410255563","-0.0033420512820511086"
"582","0.007644999999999236","2.453124999999279E-4"
"583","0.00819800000000015","0.0013599999999999095"
"584","0.004038666666667249","0.001011333333333179"
"585","0.005896086956522039","0.0022417391304351804"
"586","0.006123636363635786","0.001743181818182035"
"587","0.016190588235293082","0.008309411764704781"
"588","0.009858461538462175","-0.004789230769230375"
"589","0.009696153846155981","0.0037199999999990917"
"590","0.014298000000002276","0.0072020000000016186"
"591","0.005005833333333598","-1.1249999999958978E-4"
"592","0.00956499999999938","0.003921249999998988"
"593","0.009381111111110051","0.004815555555556806"
"594","0.014595000000000358","0.014181874999999788"
"595","0.01109846153846251","0.0013315384615382004"
"596","0.013358999999997678","-0.0016574999999992457"
"597","0.01761933333333161","0.010904666666665955"
"598","1.253473404255319","0.09998276595744669"
"599","0.00845952380952448","0.005816666666665545"
"600","1.0333588659793806","-0.33988701030927815"
"601","0.0358238509316779","0.033253354037266994"
"602","0.01678464285714603","0.015113928571429267"
"603","0.010735000000003936","-0.008438749999999828"
"604","0.009957368421052442","0.0016973684210521349"
"605","0.0021599999999892816","0.0194599999999987"
"606","0.026429999999997733","0.026280000000001635"
"607","0.02450750000000035","-0.0060112499999998015"
"608","0.027205000000000368","0.014997500000001107"
"609","0.05038249999999067","-6.799999999982376E-4"
"610","0.012657499999999544","0.024477500000000596"
"611","0.02466057142857093","-0.018432285714285866"
"612","0.03079374999999726","-0.023844999999998784"
"613","0.027438028169013463","-0.028188450704225418"
"614","0.022210583333332857","-0.026294500000000318"
"615","0.019398111111110772","-0.017071444444444358"
"616","0.015225172413791089","-0.016129655172413614"
"617","0.7120220289855075","-0.2484340579710143"
"618","0.013299772727273148","-0.01355613636363693"
"619","0.010291549295776158","-0.01068746478873255"
"620","0.009887717391304408","-0.00767717391304335"
"621","0.01106321428571379","-0.010913571428571587"
"622","0.009967906976743659","-0.008946744186046638"
"623","0.01968195121951315","-0.030037804878048573"
"624","0.020757288135594472","-0.024109661016949464"
"625","0.013173809523809189","-0.016030714285714575"
"626","0.008927741935484656","-0.010851935483870877"
"627","0.0","0.0"
"628","0.02087153846153674","-0.016591538461537533"
"629","0.018160000000000207","-0.009622142857142737"
"630","0.011789285714285771","-0.009774285714286433"
"631","0.008102500000000123","-0.005838750000000337"
"632","0.009742499999997989","-0.00842937499999974"
"633","0.0053985714285700636","-0.007063571428572756"
"634","0.008513333333331966","-0.007860000000000275"
"635","0.004913749999999162","-0.005728749999999394"
"636","0.006339285714286547","-0.007413571428571432"
"637","0.0070699999999987995","-0.01004666666666528"
"638","0.00882000000000005","-0.005986666666666214"
"639","0.005273333333332649","-0.010060000000000477"
"640","0.011988333333334033","-0.010343888888889473"
"641","0.012164545454547754","-0.009461818181819126"
"642","0.011713599999999076","-0.007353199999999873"
"643","0.018373076923075778","-0.016509230769231317"
"644","0.014269499999996781","-0.01568550000000126"
"645","0.020565789473684055","-0.018087894736842264"
"646","0.029479999999999507","-0.021972500000000394"
"647","0.012181249999995813","-0.007677499999999338"
"648","0.8737994736842094","-0.04321421052631554"
"649","0.003489230769229852","-0.009802307692307175"
"650","0.050162222222220346","-0.04862111111111113"
"651","0.009807999999995331","-0.02076799999999963"
"652","0.10021800000000383","-0.16263000000000147"
"653","0.04466200000000242","-0.031276000000000435"
"654","0.0038459999999986396","-0.016173999999999467"
"655","0.01759555555555734","-0.009358888888888275"
"656","0.0","0.0"
"657","0.004649999999998045","-3.799999999998249E-4"
"658","0.019363333333332716","-0.009425999999999846"
"659","0.019356799999999143","-0.02447159999999997"
"660","0.015709787234043197","-0.01931893617021318"
"661","0.015547405063289776","-0.0282407594936711"
"662","0.016960652173912332","-0.01566576086956522"
"663","0.016633939393938483","-0.013509595959595928"
"664","0.015104883720929928","-0.013571860465116383"
"665","0.0206629629629629","-0.020905925925925415"
"666","0.018379999999998592","-0.016594473684210565"
"667","0.01265985074626916","-0.012170000000000064"
"668","0.016917575757575163","-0.015043333333333445"
"669","0.010527058823528158","-0.015042549019607984"
"670","0.017286891891892156","-0.019827972972973347"
"671","0.02006372549019707","-0.020484705882352554"
"672","0.010553999999999952","-0.015965750000000424"
"673","0.00977428571428601","-0.012580476190476156"
"674","0.007997499999998992","-0.00783812499999903"
"675","0.009034999999999608","-0.006915000000000522"
"676","0.015178124999999376","-0.009444375000000393"
"677","0.007629333333332985","-0.007484666666666584"
"678","0.008900000000001285","-0.012744"
"679","0.003611999999998261","-0.005012000000000683"
"680","0.007029999999996761","-0.001160000000000494"
"681","0.007220000000000937","-0.005524000000000484"
"682","0.005724999999999388","-0.00378333333333399"
"683","0.005149999999993327","-0.00923999999999836"
"684","0.004156000000001825","-0.009040000000000247"
"685","0.004185000000006767","-0.0033999999999991815"
"686","0.005533999999998684","-0.008218000000000104"
"687","0.00900999999999641","-8.300000000005525E-4"
"688","7.999999999910301E-4","-0.011740000000003192"
"689","0.0","0.0"
"690","0.026960625000004512","-0.03207312500000015"
"691","0.015727200000001176","-0.020732399999999842"
"692","0.01218315789473859","-0.005978421052631501"
"693","0.015794285714282603","-0.009674285714286412"
"694","0.01992000000000142","-0.014894999999998623"
"695","0.031611818181821925","-0.021373636363636258"
"696","0.01755000000000706","-0.011339999999997019"
"697","0.036667500000005404","-0.03935874999999989"
"698","0.013380909090907328","-0.00970909090909089"
"699","0.0016999999999924853","-0.00839999999999641"
"700","0.006199999999999761","-0.0035050000000005355"
"701","0.005983333333333007","-0.011473333333333594"
"702","0.004450000000005616","-0.0037599999999997635"
"703","0.008076666666660515","-0.008263333333333142"
"704","0.0","0.0"
"705","0.021782580645161","-0.017066129032257887"
"706","0.014935000000001622","-0.015306666666667468"
"707","0.014229999999998336","-0.005141666666666822"
"708","0.012403979591835663","-0.01475163265306148"
"709","0.010318000000000901","-0.009442869565217525"
"710","0.017637282608695605","-0.015117826086956259"
"711","0.01151436893203855","-0.013997378640776903"
"712","0.123447517241379","-0.17765055172413804"
"713","0.015218681318681846","-0.01594054945054947"
"714","0.017737388059701643","-0.016521940298507256"
"715","0.01374480000000048","-0.0171448000000008"
"716","0.017358076923077448","-0.01617076923076934"
"717","0.026951923076921274","-0.029450769230769024"
"718","0.026660384615381963","-0.01997307692307779"
"719","0.014078333333332872","-0.022852777777777708"
"720","0.3387200000000048","-0.11582999999999988"
"721","0.015569999999997345","-0.00789333333333353"
"722","0.02015611111110971","-0.007832777777777503"
"723","0.016615333333333145","-0.008280666666666528"
"724","0.00835214285714311","-0.006813571428571054"
"725","0.012645555555555651","-0.008697777777776534"
"726","0.01159000000000058","-0.008671111111110482"
"727","0.017040000000003868","-0.005813333333333522"
"728","0.0044622222222230334","-0.004244444444443631"
"729","0.00420000000000087","-0.002022499999999816"
"730","0.0061999999999973925","-0.00680333333333157"
"731","0.008459999999992363","-0.0015199999999992997"
"732","0.002960000000001628","-0.0012650000000000716"
"733","0.0012999999999969702","-0.003849999999999909"
"734","9.199999999935926E-4","-0.0010399999999961551"
"735","0.006454999999998989","-0.005914999999998116"
"736","0.0","0.0"
"737","0.012541818181816211","-0.025120000000000173"
"738","0.023080833333330258","-0.020757500000001095"
"739","0.024808947368420695","-0.016813157894735895"
"740","0.009472727272727804","-0.009814545454546287"
"741","0.02846250000000161","-0.02306125000000092"
"742","0.008119999999993865","-0.00712999999999937"
"743","0.021673571428571847","-0.019264999999999484"
"744","0.01045166666667067","-0.006485000000001406"
"745","0.011497272727275097","-0.01816000000000044"
"746","0.007971666666669819","-0.006975000000001212"
"747","0.005950000000012778","-1.5000000000142677E-4"
"748","0.0","0.0"
"749","0.010624000000001388","-0.01392799999999923"
"750","0.00687333333332892","-0.019286666666665713"
"751","0.0","0.0"
"752","0.018800000000000712","-0.02157399999999967"
"753","0.0413860000000005","-0.045110000000003224"
"754","0.261457391304346","-0.8924947826086959"
"755","0.049293212851405754","-0.1213886345381522"
"756","0.018358800000001542","-0.018090200000000393"
"757","0.008800296296295751","-0.011339333333333536"
"758","0.012520574712643985","-0.010882413793102681"
"759","0.8366002666666663","-0.2340498666666664"
"760","0.015832708333332873","-0.016212916666667205"
"761","0.014348750000001687","-0.016255000000000797"
"762","0.0169184615384619","-0.021333333333333353"
"763","0.02502230769230734","-0.028033076923076276"
"764","0.04767333333333343","-0.043428333333333076"
"765","0.028283999999999487","-0.029058500000001077"
"766","0.01430529411764655","-0.01940999999999955"
"767","0.01105312500000255","-0.014903749999999771"
"768","0.0117141666666661","-0.010381666666666808"
"769","0.004808571428571083","-0.007120000000001474"
"770","0.004800000000002009","-0.0048028571428559985"
"771","0.007064285714285745","-0.007148571428572836"
"772","0.00579500000000029","-0.010933333333331538"
"773","0.006598571428573864","-0.006564285714286403"
"774","0.006414000000000896","-0.008561999999994897"
"775","0.004743999999998039","-0.011908000000001095"
"776","0.005933333333330164","-0.009811666666665294"
"777","0.009213749999999798","-0.008592499999998005"
"778","0.0039200000000043644","-0.01649500000000259"
"779","0.00512285714285708","-0.0045757142857141275"
"780","0.006555999999999784","-0.00891499999999965"
"781","0.0073359999999979665","-0.009947999999998559"
"782","0.02118333333333074","-0.007323333333329647"
"783","0.00826000000000171","-0.006702499999997613"
"784","0.025415238095237533","-0.020686666666666128"
"785","0.018021363636366253","-0.01179909090909025"
"786","0.015428571428571337","-0.008868571428570655"
"787","0.011694782608694996","-0.012456086956520838"
"788","0.00890117647058981","-0.009439411764706515"
"789","0.010289411764705058","-0.006812941176473059"
"790","0.3543618604651158","-0.09430069767441858"
"791","0.013311764705882467","-0.011532352941178119"
"792","0.012554545454542355","-0.011518181818183072"
"793","0.011599411764707083","-0.011025882352942565"
"794","0.006014677419353537","-0.005519193548388622"
"795","0.004673333333337205","-0.008250000000000708"
"796","0.013730000000009568","-0.01183000000000097"
"797","0.0019600000000015902","-0.00330333333333499"
"798","0.00978166666666643","-0.009255000000000754"
"799","0.037980000000004566","-0.01076000000000299"
"800","0.019599999999989848","-0.029719999999997526"
"801","0.011798695652175964","-0.01079782608695692"
"802","0.007665714285711567","-0.011834920634920346"
"803","0.013512307692310198","-0.021566410256410106"
"804","0.021970624999999244","-0.012469374999998006"
"805","0.012357407407407128","-0.008817222222222311"
"806","0.006945333333333359","-0.011194333333333143"
"807","0.006483913043478125","-0.008182826086956673"
"808","0.02001560000000083","-0.013671600000000695"
"809","0.01965166666666966","-0.017254166666665682"
"810","0.018312000000000002","-0.02254899999999959"
"811","0.026264117647061373","-0.03224411764705797"
"812","0.010310769230767227","-0.021859999999999394"
"813","0.008355999999989904","-0.0132780000000011"
"814","0.0097720000000038","-0.01042800000000028"
"815","0.009943333333332305","-0.012459999999999619"
"816","0.020176000000000728","-0.005231999999998039"
"817","0.006538000000000465","-0.0065400000000011005"
"818","0.015451666666668492","-0.004866666666665982"
"819","0.003978333333333713","-0.0077400000000018565"
"820","0.007676666666668552","-0.010831666666668127"
"821","0.005506666666670175","-0.005856666666666399"
"822","0.004199999999997317","-0.009473333333334702"
"823","0.005900000000004013","-0.007250000000006196"
"824","0.00567800000000176","-0.005569999999998743"
"825","0.0038900000000055","-0.010330000000006834"
"826","0.0","0.0"
"827","0.004880000000007101","-5.000000000165983E-5"
"828","0.006566666666666758","-0.009913333333332256"
"829","0.0038350000000022533","-0.011505000000003207"
"830","0.0","0.0"
"831","0.00391500000000633","-0.0077350000000002694"
"832","0.011276666666668057","-0.01683555555555532"
"833","0.014271333333331882","-0.0066506666666664195"
"834","0.01719999999999946","-0.015817391304347415"
"835","0.01731586206896809","-0.011844827586206856"
"836","0.024212380952378897","-0.022238571428569828"
"837","0.016189523809524348","-0.01894000000000164"
"838","0.023019999999995377","-0.016314999999998747"
"839","0.019459999999995148","-2.999999999957481E-4"
"840","0.013103333333333467","-0.010569999999996563"
"841","0.003308000000001243","-0.0029139999999988693"
"842","0.006744999999997485","-0.004108333333332344"
"843","0.0033350000000140767","-0.010274999999996481"
"844","0.008579999999999298","-0.008205384615385251"
"845","0.010607777777780016","-0.007741111111108189"
"846","0.0","0.0"
"847","0.011975000000003178","-0.012177499999999952"
"848","0.0031228571428556506","-0.007618571428571115"
"849","0.007547368421054114","-0.012718947368420842"
"850","0.012483043478262191","-0.020473913043478585"
"851","0.010705833333335116","-0.01197000000000159"
"852","0.012156000000000233","-0.01011400000000009"
"853","0.018293846153849377","-0.006875384615386137"
"854","0.015039999999991949","-0.005854999999996835"
"855","0.023625714285714645","-0.01123285714285771"
"856","0.018819999999996995","-0.02247599999999892"
"857","0.022729677419353642","-0.02045483870967708"
"858","0.01972909090908911","-0.015592727272727364"
"859","0.006338333333333779","-0.005151666666667627"
"860","0.009950000000003456","-7.40000000000407E-4"
"861","0.0","0.0"
"862","0.047930000000000916","-0.004989999999992278"
"863","0.0","0.0"
"864","0.0","0.0"
"865","0.003949999999996123","-0.008879999999997779"
"866","0.00615999999999417","-0.0055599999999955685"
"867","0.0037199999999941724","-0.03536000000000428"
"868","0.004042500000004168","-0.0071000000000012164"
"869","0.005758571428572168","-0.004529999999999542"
"870","0.004876000000000147","-0.006412000000000262"
"871","0.004293333333331854","-0.009881666666666197"
"872","0.006865999999999417","-0.00623799999999477"
"873","0.0041149999999987585","-0.008622499999994204"
"874","0.005347999999999331","-0.003272000000001185"
"875","0.0060100000000034015","-0.004865000000005892"
"876","0.0","0.0"
"877","0.002244166666667861","-0.0020708333333345763"
"878","0.0","0.0"
"879","0.005120588235295245","-0.009037058823528977"
"880","0.009095652173912852","-0.009823478260869933"
"881","0.013169428571427083","-0.010732571428572157"
"882","0.024652142857142678","-0.016807142857143527"
"883","0.016250000000002984","-0.012321250000001172"
"884","0.004419230769232085","-0.005209230769233058"
"885","0.014919999999989386","-0.020149999999993895"
"886","0.0","0.0"
"887","0.010000000000005116","-0.014393333333328448"
"888","0.004204999999998904","-0.003589999999999094"
"889","0.0028900000000078307","-0.029029999999991674"
"890","0.0","0.0"
"891","0.0013787499999970976","-0.008713750000000076"
"892","0.02089187499999845","-0.024464374999999983"
"893","0.0","0.0"
"894","0.0","0.0"
"895","0.0030249999999867327","-0.021270000000004785"
"896","0.003814285714285453","-0.01313999999999993"
"897","0.013684285714291176","-0.011581428571430154"
"898","0.014760000000000181","-0.018054999999999193"
"899","0.0","0.0"
"900","0.01510333333333295","-0.013079999999997463"
"901","0.011896000000001905","-0.006965999999999894"
"902","0.008525714285717865","-0.007402857142859075"
"903","0.016608571428573526","-0.030368571428572824"
"904","0.02104399999999984","-0.042983999999997025"
"905","0.009254999999999569","-0.016244999999997844"
"906","0.005582500000000046","-0.007830000000000226"
"907","0.011315000000003295","-0.025175000000000836"
"908","0.016024999999996403","-0.018012499999997544"
"909","0.004753999999999791","-0.004229999999999734"
"910","0.01685500000001028","-0.022795000000005672"
"911","0.00784500000000321","-0.005192500000001488"
"912","0.005739999999999412","-0.008874999999996191"
"913","0.008656666666662241","-0.0033899999999983756"
"914","0.014810000000004209","-0.007709999999995887"
"915","0.004299999999993531","-0.01758999999999844"
"916","0.0","0.0"
"917","0.01753000000000071","-0.0021100000000018326"
"918","0.01898142857142712","-0.00920714285714703"
"919","0.0020733333333306327","-0.003453333333332864"
"920","0.005055000000002252","-0.0034299999999980457"
"921","0.0024133333333343407","-0.00925666666666558"
"922","0.010452499999997755","-0.00663499999999928"
"923","0.007165000000000532","-0.0076350000000005025"
"924","0.003616000000002373","-0.006007999999998503"
"925","0.011925999999996861","-0.004454000000001202"
"926","0.007531333333332668","-0.01071533333333529"
"927","0.00988777777778043","-0.012824444444444479"
"928","0.008110714285711498","-0.007541428571430332"
"929","0.01462399999999633","-0.013128999999999991"
"930","0.015985333333333074","-0.013444666666667614"
"931","0.0026524074074079826","-0.0018138888888883128"
"932","0.0","0.0"
"933","0.0","0.0"
"934","0.0031600000000082673","-0.008549999999992508"
"935","0.009419999999991546","-0.00274999999999892"
"936","0.00544999999999618","-0.02520999999999418"
"937","0.0","0.0"
"938","0.01001999999999903","-0.015001249999999189"
"939","0.03231000000000108","-0.055384000000005075"
"940","0.0","0.0"
"941","0.0","0.0"
"942","0.01773666666666666","-0.027629999999994936"
"943","0.0","0.0"
"944","0.011313333333334915","-0.020038333333335007"
"945","0.010632500000002487","-0.016037500000003035"
"946","0.01368999999999924","-0.04881333333333752"
"947","0.015317142857143093","-0.00792142857142965"
"948","0.01116000000000028","-0.013069999999999027"
"949","0.012230000000000038","-0.004526666666670565"
"950","0.011649999999997718","-0.0038400000000002876"
"951","0.0076150000000057005","-0.011982499999996676"
"952","0.009086666666668464","-0.007505000000001871"
"953","0.009903333333331451","-0.009803333333332867"
"954","0.02102999999999966","-0.015632499999998828"
"955","0.016195000000001514","-0.01227999999999696"
"956","0.006569999999999965","-0.012846666666668227"
"957","0.004019999999993473","-0.00677499999999398"
"958","0.00742250000000233","-0.00965500000000219"
"959","0.008562499999998252","-0.008672499999999417"
"960","0.0","0.0"
"961","0.010436666666665909","-0.008513333333335519"
"962","0.010399999999997078","-0.002389999999998338"
"963","0.0","0.0"
"964","0.011290000000002465","-0.010310000000004038"
"965","0.0029300000000063164","-0.002070000000003347"
"966","0.004744999999999777","-0.014365000000001515"
"967","0.027445000000003716","-0.01234999999999431"
"968","0.005683333333337259","-0.006936666666668145"
"969","0.00421999999999656","-0.007873333333333695"
"970","0.008091666666661723","-0.007444999999997037"
"971","0.007182499999997205","-0.018007499999997734"
"972","0.015552500000001857","-0.004780000000002005"
"973","0.007081250000004147","-0.0063500000000003"
"974","0.0029033333333311853","-0.00854333333333083"
"975","0.003299999999995862","-0.012839999999997076"
"976","0.0042774999999970476","-0.0050612499999971305"
"977","0.008862999999999488","-0.004035999999999973"
"978","0.019267142857147843","-0.01783571428571256"
"979","0.0035749999999978854","-0.004087500000000688"
"980","0.003086666666665868","-0.009460000000001875"
"981","0.020685714285710737","-0.017344285714283307"
"982","0.009939999999986071","-0.014509999999997802"
"983","0.0","0.0"
"984","0.0","0.0"
"985","0.01169750000000036","-0.010535499999999942"
"986","0.0","0.0"
"987","0.0018499999999903594","-0.005329999999993618"
"988","0.006619999999998072","-0.02308000000000021"
"989","0.010484999999998745","-0.015654999999998864"
"990","0.028372500000003242","-0.03566249999999904"
"991","0.01913999999999305","-0.0031999999999996476"
"992","0.0","0.0"
"993","0.009489999999999998","-0.025377499999999387"
"994","0.010876666666667015","-0.015089999999999925"
"995","0.0","0.0"
"996","0.0","0.0"
"997","0.008665000000000589","-0.012509999999998911"
"998","0.004314999999998292","-0.008289999999998798"
"999","0.0","0.0"
"1000","0.0033400000000085583","-0.008729999999999905"
"1001","0.017346666666661292","-0.005963333333333765"
"1002","0.015626666666667195","-0.011783333333332516"
"1003","0.011043333333333294","-0.01496000000000445"
"1004","0.013276666666664974","-0.01570999999999619"
"1005","0.011850000000000213","-0.007530000000002701"
"1006","0.005824999999996194","-0.0061299999999935295"
"1007","0.014324999999999477","-0.016690000000000538"
"1008","0.009069999999998876","-0.011886666666669043"
"1009","0.010694999999998345","-0.014804999999995516"
"1010","0.01395000000000124","-0.009416666666661891"
"1011","0.009074999999999278","-0.010564999999999714"
"1012","0.004886666666668778","-0.00812333333333252"
"1013","0.00864599999999598","-0.008812000000001773"
"1014","0.0071666666666653596","-0.0033266666666638875"
"1015","0.008303333333336759","-0.0060788888888896825"
"1016","0.0048971428571432185","-0.004501428571429196"
"1017","0.001790000000003289","-0.009949999999999903"
"1018","0.00545333333333294","-0.007809999999996838"
"1019","0.0012200000000035516","-0.013059999999995853"
"1020","0.013226666666663315","-8.966666666670638E-4"
"1021","0.0044966666666586734","-0.010506666666666812"
"1022","0.004417142857140074","-0.005774285714284336"
"1023","0.013886666666664382","-0.013913333333333592"
"1024","0.01826799999999764","-0.017385999999997636"
"1025","0.007597368421051287","-0.0053915789473684955"
"1026","0.013085000000010893","-0.010889999999996292"
"1027","0.0045300000000025875","-0.00909571428571557"
"1028","0.012365000000002624","-0.011557500000002108"
"1029","0.008785999999994942","-0.005741999999999336"
"1030","0.008333333333335228","-0.009693333333335849"
"1031","0.008211428571428314","-0.017147142857142837"
"1032","0.004288333333332635","-0.009920000000001039"
"1033","0.0","0.0"
"1034","0.04099799999999618","-0.06649600000000078"
"1035","0.0","0.0"
"1036","0.04532500000000006","-0.030784999999998064"
"1037","0.008035000000003123","-0.03957749999999827"
"1038","0.01322666666667279","-0.016820000000000352"
"1039","0.0","0.0"
"1040","0.0","0.0"
"1041","0.007104285714285753","-0.035735714285716015"
"1042","0.0","0.0"
"1043","0.0","0.0"
"1044","0.0","0.0"
"1045","0.0","0.0"
"1046","0.0","0.0"
"1047","0.006320000000000547","-0.02005999999999375"
"1048","4.150000000020526E-4","-0.010160000000002611"
"1049","0.009147999999999712","-0.005188000000001125"
"1050","0.024117499999999126","-0.026427500000000492"
"1051","0.0","0.0"
"1052","0.0037149999999979144","-0.010657500000000653"
"1053","0.007449999999998624","-0.01411999999999125"
"1054","0.007240000000003022","-0.01706000000000074"
"1055","0.0","0.0"
"1056","0.0","0.0"
"1057","0.0","0.0"
"1058","0.0054499999999979565","-0.005579999999998364"
"1059","0.01086000000000098","-0.001550000000008822"
"1060","4.50000000007833E-4","-0.0030900000000073646"
"1061","0.004363333333335125","-0.008323333333332053"
"1062","0.002669999999994843","-0.006989999999994723"
"1063","0.00209000000000259","-0.0017750000000020805"
"1064","0.0","0.0"
"1065","0.0014600000000086766","-0.00497999999999621"
"1066","0.006579999999992481","-0.008380000000002497"
"1067","0.005429999999999306","-0.0038133333333405517"
"1068","0.0020899999999954844","-0.006274999999998698"
"1069","0.0033399999999943475","-0.018380000000000507"
"1070","0.006675000000008424","-0.0035900000000026466"
"1071","0.008678571428572604","-0.006295238095240003"
"1072","0.013013333333328584","-0.004013333333335349"
"1073","0.0017700000000075988","-0.0035799999999994725"
"1074","0.008274999999990484","-0.005889999999993734"
"1075","0.02112499999999784","-0.020413333333332655"
"1076","0.0","0.0"
"1077","0.004647500000000804","-0.014535000000000409"
"1078","0.0","0.0"
"1079","0.0","0.0"
"1080","0.0","0.0"
"1081","0.023610769230767933","-0.02140307692307667"
"1082","0.0","0.0"
"1083","0.0167499999999996","-0.042244999999997646"
"1084","0.018316666666673125","-0.06880000000000071"
"1085","0.029404999999997017","-0.0164200000000001"
"1086","0.0","0.0"
"1087","0.0","0.0"
"1088","0.0","0.0"
"1089","0.0","0.0"
"1090","0.0","0.0"
"1091","0.0","0.0"
"1092","0.007289999999997576","-0.011490000000001999"
"1093","0.0021849999999989933","-0.00670499999999663"
"1094","0.009760000000001767","-0.009524999999996453"
"1095","0.005675000000000097","-0.014530000000000598"
"1096","0.0","0.0"
"1097","0.004850000000004684","-0.015755000000005737"
"1098","0.011993999999999972","-0.01203999999999894"
"1099","0.005344999999999563","-0.009915000000000637"
"1100","0.005590000000000828","-0.009314000000000534"
"1101","0.00497333333333098","-0.008433333333332627"
"1102","0.004814000000003205","-0.0061079999999989806"
"1103","0.0034571428571429203","-0.006437142857143792"
"1104","0.00449500000000036","-0.006959999999999411"
"1105","0.00329500000000138","-0.00564499999999768"
"1106","0.003229999999998512","-0.004560000000001452"
"1107","2.7000000000043656E-4","-0.010790000000000077"
"1108","0.009790000000002408","-1.299999999986312E-4"
"1109","0.0","0.0"
"1110","0.004249999999998977","-0.005470000000002528"
"1111","0.001720000000005939","-0.011400000000001853"
"1112","0.00485499999999206","-0.0016849999999948295"
"1113","0.004382000000003927","-0.0030120000000010807"
"1114","0.0","0.0"
"1115","0.003910000000004743","-0.010000000000005116"
"1116","0.005183999999997013","-0.00920399999999546"
"1117","0.01013714285714278","-0.012218571428572236"
"1118","0.010359999999998593","-0.014496666666667343"
"1119","0.0","0.0"
"1120","0.0","0.0"
"1121","0.0052768750000034","-0.004100625000000857"
"1122","0.013475555555556204","-0.009231666666667119"
"1123","0.002080000000000837","-0.013776000000001431"
"1124","0.010730500000001086","-0.010896499999999065"
"1125","0.0","0.0"
"1126","0.0","0.0"
"1127","0.0","0.0"
"1128","0.0","0.0"
"1129","0.0","0.0"
"1130","0.028813571428571612","-0.03842357142857215"
"1131","0.07087333333333372","-0.03255000000000052"
"1132","0.015410769230768869","-0.018438461538457646"
"1133","0.009752727272726086","-0.009414545454543666"
"1134","0.007490000000001403","-0.004375000000000758"
"1135","0.01005833333333476","-0.007011666666667082"
"1136","0.006603333333330852","-0.004473333333332145"
"1137","0.0076400000000020896","-0.0018266666666650149"
"1138","0.013809999999999434","-0.010075999999999396"
"1139","0.015720000000001733","-0.022280000000002076"
"1140","0.004839999999987299","-0.014409999999998035"
"1141","0.008726666666665514","-0.003300000000000599"
"1142","6.49999999993156E-4","-0.01559999999999917"
"1143","0.01102500000001072","-0.010384999999999422"
"1144","0.00198999999999927","-0.008900000000004127"
"1145","0.0","0.0"
"1146","0.00800999999999874","-0.024680000000003588"
"1147","0.0037238709677419207","-0.0024806451612901567"
"1148","0.005540909090908289","-0.004191818181816778"
"1149","0.006401249999998804","-0.006782500000000802"
"1150","0.012878000000000611","-0.005758000000004415"
"1151","0.007523333333336287","-0.005170000000002044"
"1152","0.005875000000003183","-0.012280000000000513"
"1153","0.004829999999998336","-0.006660000000003663"
"1154","0.0056900000000084106","-7.199999999869533E-4"
"1155","0.004962499999995984","-0.007080000000000197"
"1156","0.008016666666667524","-0.008336666666668435"
"1157","0.003849999999999909","-0.003049999999994668"
"1158","0.006786666666663166","-0.008823333333339178"
"1159","0.0","0.0"
"1160","0.007939999999997838","-0.006344999999999601"
"1161","0.0023299999999863985","-0.015630000000001587"
"1162","0.003909999999990532","-0.004899999999999238"
"1163","0.0022299999999972897","-0.020254999999998802"
"1164","0.004666666666670001","-0.0023399999999990464"
"1165","0.01445790697674586","-0.8207500000000001"
"1166","0.014265000000008854","-0.0013649999999962859"
"1167","0.0061066666666723295","-0.004496666666663411"
"1168","0.009598000000000297","-0.007521199999999624"
"1169","0.00575928571428262","-0.0052135714285707225"
"1170","0.008493913043480461","-0.0048978260869581595"
"1171","0.004103636363636941","-0.0035869090909089476"
"1172","0.0016047560975611826","-0.0020450000000000043"
"1173","0.0","0.0"
"1174","0.0","0.0"
