"cell_id","acc_x","acc_y"
"0","0.0","0.0"
"1","-0.002540789473684144","0.002419999999999966"
"2","-0.009117327586205438","0.007453189655172426"
"3","-0.00898112499999964","0.008438062500000005"
"4","-0.008015294117647136","0.00840386554621848"
"5","-0.010156969696971132","0.008566363636363627"
"6","-0.01252928571428326","0.01553499999999999"
"7","-0.01156555555555578","0.01068166666666667"
"8","-0.010827272727271232","0.018182727272727236"
"9","-0.01171518518518458","0.012385185185185207"
"10","-0.010091428571426673","0.013885714285714279"
"11","-0.012358571428567952","0.01527571428571425"
"12","-0.009020999999999547","0.007201999999999975"
"13","-0.00919571428571077","0.02499714285714291"
"14","-0.016403333333333176","0.0187416666666667"
"15","-0.009344999999999715","0.011221666666666666"
"16","-0.013184545454545959","0.005889090909090919"
"17","-0.017708461538461916","0.009301153846153832"
"18","-0.011209999999996612","0.016610000000000014"
"19","-0.009884999999997035","0.011260000000000048"
"20","-0.008500000000000322","0.003406666666666632"
"21","-0.007667999999999608","0.012016000000000072"
"22","-0.021899999999997515","0.013876666666666685"
"23","-0.00937999999999306","7.500000000000284E-4"
"24","-0.01056000000000168","0.024285"
"25","-0.0071166666666637","0.013929999999999923"
"26","0.0","0.0"
"27","0.0","0.0"
"28","0.0","0.0"
"29","0.0","0.0"
"30","0.0","0.0"
"31","0.0","0.0"
"32","0.0","0.0"
"33","0.0","0.0"
"34","0.0","0.0"
"35","0.0","0.0"
"36","0.0","0.0"
"37","0.0","0.0"
"38","0.0","0.0"
"39","0.0","0.0"
"40","0.0","0.0"
"41","0.0","0.0"
"42","0.0","0.0"
"43","0.0","0.0"
"44","0.0","0.0"
"45","0.0","0.0"
"46","0.0","0.0"
"47","0.0","0.0"
"48","-0.005792666666665684","0.010740000000000017"
"49","-0.016759111111109882","0.014278444444444514"
"50","-0.010299799999998633","0.007860800000000067"
"51","-0.01288230769230812","0.02032923076923079"
"52","-0.0068035714285719405","0.00925785714285712"
"53","-0.008994193548388001","0.009115322580645147"
"54","-0.013807142857144619","0.018868928571428505"
"55","-0.016202790697673945","0.01594139534883715"
"56","-0.013995789473686335","0.012741842105263168"
"57","-0.014909666666665444","0.015890666666666706"
"58","-0.021685121951217506","0.024352682926829315"
"59","-0.01815967741935406","0.02010032258064514"
"60","-0.01619894736842036","0.023753684210526337"
"61","-0.013422727272728125","0.021476363636363474"
"62","-0.01707578947368454","0.02169105263157901"
"63","-0.014821428571426256","0.024345714285714352"
"64","-0.01453166666666661","0.02212499999999995"
"65","-0.010573000000000832","0.015179000000000054"
"66","-0.010145000000002114","0.023594999999999942"
"67","-0.007007999999999489","0.013211333333333257"
"68","-0.012239999999998474","0.01717428571428587"
"69","-0.008441818181817691","0.0063363636363635645"
"70","-0.011901250000001973","0.009932500000000094"
"71","-0.013414999999999585","0.007703333333333247"
"72","-0.01519800000000231","0.016645999999999984"
"73","-0.009271999999999992","0.012212000000000067"
"74","-0.011123636363635114","0.008959090909090901"
"75","-0.01232428571428455","0.01001142857142856"
"76","-0.008354999999999299","0.007901666666666696"
"77","-0.009926000000001522","0.008187999999999907"
"78","0.0","0.0"
"79","0.0","0.0"
"80","0.0","0.0"
"81","0.0","0.0"
"82","0.0","0.0"
"83","0.0","0.0"
"84","0.0","0.0"
"85","0.0","0.0"
"86","0.0","0.0"
"87","0.0","0.0"
"88","0.0","0.0"
"89","0.0","0.0"
"90","0.0","0.0"
"91","0.0","0.0"
"92","0.0","0.0"
"93","0.0","0.0"
"94","0.0","0.0"
"95","-0.01090411764705855","0.02231882352941185"
"96","-0.017955294117647135","0.016552941176470437"
"97","-0.009531724137929408","0.005619655172413749"
"98","-0.013554285714284806","0.017047142857143007"
"99","-0.023950000000003486","0.018037692307692248"
"100","-0.0244493333333331","0.01915333333333325"
"101","-0.012702692307691986","0.010605384615384747"
"102","-0.012483103448277078","0.009132413793103585"
"103","-0.019871000000000017","0.028598500000000283"
"104","-0.018501904761904883","0.018179047619047633"
"105","-0.02054089285714403","0.021879642857142816"
"106","-0.023794687500000578","0.020989062500000127"
"107","-0.016742222222221572","0.015452777777777723"
"108","-0.021871428571428604","0.014056428571428383"
"109","-0.010867333333333324","0.015830000000000056"
"110","-0.011762499999999676","0.01271999999999999"
"111","-0.012542727272726236","0.019051818181818045"
"112","-0.011406666666663531","0.01567333333333328"
"113","-0.00854399999999771","0.017177999999999825"
"114","-0.007375714285712677","0.008577142857143092"
"115","-0.00530454545454585","0.007869090909091188"
"116","-0.00706250000000086","0.007736249999999778"
"117","-0.00691555555555665","0.009759999999999991"
"118","-0.006794999999996776","0.008071666666667069"
"119","-0.010511250000000416","0.0073224999999998985"
"120","-0.011097499999998206","0.004992499999999511"
"121","-0.0037499999999965894","0.005509999999999238"
"122","-0.018974000000000046","0.007452000000000325"
"123","-0.011986000000000274","0.005638000000000254"
"124","-0.01760666666666487","0.015801111111111057"
"125","-0.007005000000001616","0.011299999999999866"
"126","-0.014375555555550553","0.007175555555555491"
"127","-0.01786166666667081","0.009418333333333676"
"128","-0.005903333333331299","0.010266666666666127"
"129","0.0","0.0"
"130","0.0","0.0"
"131","0.0","0.0"
"132","-0.014073333333333457","0.024106666666666794"
"133","0.0","0.0"
"134","0.0","0.0"
"135","0.0","0.0"
"136","0.0","0.0"
"137","0.0","0.0"
"138","0.0","0.0"
"139","0.0","0.0"
"140","0.0","0.0"
"141","0.0","0.0"
"142","-0.029423750000000044","0.022284583333333424"
"143","-0.0082999999999999","0.011516666666667064"
"144","-0.022214090909091485","0.018541363636363405"
"145","-0.013785714285713953","0.012437714285714182"
"146","-0.013062500000000199","0.01746499999999973"
"147","-0.020235333333333116","0.026133333333333297"
"148","-0.02245941176470733","0.014735882352940929"
"149","-0.015245714285713672","0.019470000000000227"
"150","-0.021500833333334118","0.02721250000000001"
"151","-0.024814736842105622","0.025889473684210396"
"152","-0.020787999999998696","0.02068000000000003"
"153","-0.018231499999999557","0.015502000000000082"
"154","-0.018635000000000543","0.0170668181818183"
"155","-0.024174999999999613","0.03579071428571469"
"156","-0.016419166666667095","0.01924833333333346"
"157","-0.016189999999998744","0.01995666666666655"
"158","-0.005387999999996396","0.004682000000000031"
"159","-0.022618000000005623","0.017395999999999922"
"160","-0.010687500000000405","0.013707499999999762"
"161","-0.0062812500000024585","0.007783749999999756"
"162","-0.00493799999999851","0.00804999999999989"
"163","-0.013714000000001647","0.006332000000000448"
"164","-0.008560000000000123","0.007144999999999846"
"165","-0.00986999999999938","0.004596666666666878"
"166","-0.006190000000001916","0.0029925000000001756"
"167","-0.013907499999998407","0.008104999999999585"
"168","-0.007719000000001586","0.014146999999999733"
"169","-0.009558749999999172","0.004578749999999965"
"170","-0.013801666666665824","0.011733333333333226"
"171","-0.007861428571427862","0.00641285714285722"
"172","-0.0017899999999855254","0.018659999999999677"
"173","-0.004235000000001321","0.007465000000000277"
"174","-0.011284999999997325","0.006184999999999441"
"175","-0.015248235294115087","0.020221764705882255"
"176","-0.01857999999999862","0.017122999999999954"
"177","-0.015513750000003768","0.014054999999999818"
"178","-0.006912499999998545","0.014202500000000118"
"179","-0.010389999999990351","0.005922499999999831"
"180","-0.053410000000013724","0.01200500000000071"
"181","-0.051839999999998554","0.010059999999999883"
"182","-4.2499999999279225E-4","0.010720000000000507"
"183","-0.011513749999997103","0.01179999999999981"
"184","-0.009892000000002099","0.022756000000000044"
"185","-0.009182352941179521","0.006112941176470641"
"186","0.0","0.0"
"187","0.0","0.0"
"188","0.0","0.0"
"189","-0.0251423076923097","0.030031538461538745"
"190","-0.023370000000000186","0.03810000000000061"
"191","-0.009124166666665786","0.016794166666666888"
"192","-0.02214666666666461","0.024246666666666233"
"193","-0.01110000000000048","0.01737833333333298"
"194","-0.014938333333336088","0.01279499999999989"
"195","-0.009640000000018745","0.008429999999999715"
"196","-0.016118000000000167","0.0321239999999996"
"197","-0.032691428571427296","0.04569857142857105"
"198","-0.01594499999999499","0.031199999999999672"
"199","-0.023935454545454347","0.017854545454545345"
"200","-0.01788217391304414","0.016277391304347997"
"201","-0.019017931034484535","0.014115517241379428"
"202","-0.03102760000000103","0.02890119999999964"
"203","-0.02028368421052637","0.013743684210526672"
"204","-0.014140571428571341","0.013255142857142589"
"205","-0.013428947368420702","0.01002315789473678"
"206","-0.010210000000000719","0.013056666666666198"
"207","-0.026290000000000664","0.018753333333333327"
"208","-0.005440000000000111","0.005889999999999655"
"209","-0.0013649999999962859","0.0033050000000001134"
"210","-0.010757499999998643","0.011587500000000528"
"211","-0.0063785714285740725","0.007868571428571463"
"212","-0.00768428571428359","0.00731714285714372"
"213","-0.022120000000001028","9.999999999621423E-6"
"214","-0.008328000000001622","0.004077999999999448"
"215","-0.0075346153846146315","0.004056153846153603"
"216","-0.004266000000006898","0.004276000000000124"
"217","-0.0022616666666669025","0.008066666666666222"
"218","-0.010728750000001064","0.010254999999999903"
"219","-0.007574999999996557","0.010111250000000238"
"220","-0.011230000000004736","0.006459999999999466"
"221","0.0","0.0"
"222","-0.0054999999999991315","0.0033672727272728246"
"223","-0.0103876470588263","0.005935294117647019"
"224","-0.009671250000002907","0.009103750000000077"
"225","-0.010196206896552965","0.01049413793103449"
"226","-0.008744444444443408","0.0106622222222224"
"227","-0.014807037037037937","0.011495555555555634"
"228","-0.010723947368420732","0.013414736842105496"
"229","-0.014731282051282954","0.007460769230769406"
"230","-0.010551904761903026","0.013353333333333137"
"231","-0.013476111111113513","0.011947222222222505"
"232","-0.00648535714285714","0.004662500000000109"
"233","0.0","0.0"
"234","0.0","0.0"
"235","0.0","0.0"
"236","-0.03865000000000016","0.04584800000000015"
"237","-0.012280000000000957","0.012045000000000528"
"238","-0.011175999999999141","0.012159999999999727"
"239","-0.009905714285717642","0.011225714285713855"
"240","-0.006661666666661829","0.010804166666666504"
"241","-0.026046153846152446","0.025249230769230982"
"242","-0.028898823529410703","0.026375294117647073"
"243","-0.033326666666662653","0.021983333333333615"
"244","-0.036673846153842775","0.024272307692307857"
"245","-0.018920714285712088","0.01847428571428557"
"246","-0.02144352941176167","0.01679294117647047"
"247","0.0","0.0"
"248","-0.02832800000000167","0.018463333333333408"
"249","-0.05389999999999873","0.03643000000000107"
"250","-0.013982857142857139","0.01361857142857075"
"251","-0.011395555555555603","0.007170000000000145"
"252","-0.016200967741935853","0.01267161290322559"
"253","-0.020988333333333387","0.014425833333333138"
"254","-0.016672999999999404","0.012235999999999869"
"255","-0.005938333333331751","0.008826666666665872"
"256","-0.007056000000002882","0.008054999999999524"
"257","-0.007340000000004311","0.005087142857142624"
"258","-0.006047692307692369","0.006946153846153645"
"259","-0.0069116666666661315","0.006049166666666513"
"260","-0.007715384615384944","0.006012307692308001"
"261","-0.01108666666666617","0.00672666666666603"
"262","-0.009733333333331965","0.0042133333333331064"
"263","-0.009514999999998016","0.003918333333333912"
"264","-0.007508181818182761","0.012379090909091384"
"265","-0.010575000000000223","0.008959999999999857"
"266","-0.009115714285713799","0.0057471428571425065"
"267","-0.9301988000000034","0.6818164000000002"
"268","-0.015044000000001272","0.021182000000000183"
"269","-0.017743636363634477","0.024387272727273188"
"270","-0.007865925925926831","0.010933703703703735"
"271","-0.01145565217391248","0.00946304347826075"
"272","-0.012192083333334955","0.008898750000000177"
"273","-0.021068333333331343","0.008123333333332717"
"274","-0.026868965517241973","0.019950689655172386"
"275","-0.012562083333332197","0.01805791666666649"
"276","-0.006605277777777887","0.01158000000000017"
"277","-0.01271428571428639","0.007931020408163292"
"278","-0.008698717948717762","0.010026410256410045"
"279","-0.004999047619050213","0.008498571428571805"
"280","-0.013823333333329893","0.004690000000000083"
"281","0.0","0.0"
"282","-0.0068570270270260514","0.011572702702702723"
"283","0.0","0.0"
"284","-0.021365000000000745","0.017184999999998674"
"285","-0.021660000000000013","0.02239999999999931"
"286","-0.013929444444445327","0.022057777777777905"
"287","-0.01326074074073873","0.012292592592592366"
"288","-0.008778620689654584","0.008248275862068853"
"289","-0.006833333333332803","0.010247777777778251"
"290","-0.010294999999997856","0.009017999999999837"
"291","-0.03248999999999569","0.006955000000000489"
"292","-0.0266900000000021","0.00467000000000084"
"293","-0.026024444444446872","0.021404444444444733"
"294","-0.025058181818181424","0.026811818181818256"
"295","-0.022116666666669796","0.04564555555555651"
"296","-0.04878363636363661","0.05100545454545433"
"297","-0.022782000000002967","0.03394999999999939"
"298","-0.0425619999999995","0.024918000000000263"
"299","-0.016100000000003136","0.006033333333333089"
"300","-0.0095878571428568","0.021425714285714572"
"301","-0.011300000000000523","0.008866000000000228"
"302","-0.017549999999997585","0.012269999999999115"
"303","-0.02564000000000277","0.005593333333332969"
"304","-0.006635999999997466","0.004634000000000071"
"305","-0.016759999999997888","0.002909999999999968"
"306","0.0","0.0"
"307","-0.0063199999999992785","0.007678571428571297"
"308","-0.006145714285715087","0.007312857142856899"
"309","-0.01129333333332975","0.006306666666666534"
"310","-0.008378181818181153","0.008355454545454418"
"311","-0.008239333333332866","0.004784666666666718"
"312","-0.01009999999999969","0.013448461538462362"
"313","-0.014553500000000597","0.015335500000000035"
"314","-0.010835333333332642","0.014717333333332997"
"315","-0.006814999999999571","0.013330000000000508"
"316","-0.011064285714281499","0.011020000000000125"
"317","-0.01123562499999764","0.015170625000000326"
"318","-0.011623076923070332","0.008218461538461678"
"319","-0.007014285714282055","0.011776428571428481"
"320","-0.004032307692304253","0.004656153846154117"
"321","-0.006522812500002306","0.008733749999999929"
"322","-0.009364666666667177","0.006703333333333461"
"323","-0.007982692307692218","0.014952307692307674"
"324","-0.011119090909091231","0.016260606060606194"
"325","-0.008331111111108354","0.006689999999999764"
"326","-0.004171428571429677","0.00545873015873021"
"327","-0.011550625000001702","0.01701437500000036"
"328","-0.00821000000000005","0.021802499999999725"
"329","-0.039043333333330654","0.01754833333333246"
"330","0.0","0.0"
"331","-0.00922000000000045","0.015525000000000233"
"332","-0.018032499999999674","0.034339999999999815"
"333","-0.8966478947368421","0.36993710526315793"
"334","-0.007782666666665961","0.008727333333333339"
"335","-0.005019999999998248","0.003967499999999902"
"336","0.0","0.0"
"337","-0.13749500000000126","0.09174499999999952"
"338","-0.13814000000000703","0.004020000000000579"
"339","-0.037303333333331544","0.01937000000000033"
"340","-0.009511999999998012","0.015566000000000102"
"341","-0.018409999999998865","0.005749999999999795"
"342","-0.01837000000000241","0.021448571428571483"
"343","-0.028421666666668937","0.03946999999999967"
"344","-0.029035000000000366","0.058079999999999465"
"345","-0.02662428571428523","0.026187142857142933"
"346","0.0","0.0"
"347","-0.016274000000001364","0.017454000000000035"
"348","-0.014449999999998889","0.014036666666666205"
"349","-0.010422857142856401","0.011698571428571367"
"350","-0.0070099999999939655","0.015280000000000626"
"351","-9.449999999979752E-4","0.017704999999999416"
"352","-0.008387499999997772","0.003235000000000099"
"353","-0.016049999999999898","0.015629999999998034"
"354","-0.0027533333333380483","0.008286666666666775"
"355","-0.0032860000000013655","0.004229999999999734"
"356","-0.0124899999999973","0.01223777777777831"
"357","-0.013041999999998666","0.0031840000000002535"
"358","-0.006498333333334629","0.008312777777777983"
"359","-0.5616446153846163","0.04580038461538451"
"360","-0.011534814814813669","0.02517962962962983"
"361","-0.016503968253967546","0.014523650793650872"
"362","-0.00893090909091463","0.0054154545454541325"
"363","-0.011126363636364545","0.004823636363636232"
"364","-0.021032500000000454","0.013535000000000222"
"365","-0.013798823529412248","0.012155294117647278"
"366","-0.016118461538460756","0.012264999999999988"
"367","-0.010057241379309129","0.010324137931034495"
"368","-0.014586521739127039","0.013301739130434767"
"369","-0.00735733333333286","0.016449666666666474"
"370","-0.016085277777777032","0.011238888888888847"
"371","-0.012906470588234242","0.049213921568627514"
"372","-0.016031200000000467","0.021424399999999864"
"373","-0.04294749999999681","0.0252099999999994"
"374","-0.03525000000000489","0.011874999999999858"
"375","0.0","0.0"
"376","-0.013523333333339327","0.0179999999999995"
"377","0.0","0.0"
"378","-0.0030900000000001907","0.004635384615384033"
"379","-0.02648874999999984","0.019641250000000277"
"380","-0.8481059016393442","0.20988983606557418"
"381","-0.029272307692306453","0.030800000000000775"
"382","-0.05264800000000029","0.04476200000000006"
"383","-0.024980000000000224","0.011805000000000732"
"384","0.0","0.0"
"385","0.0","0.0"
"386","0.0","0.0"
"387","-0.028909999999996217","0.016079999999998762"
"388","-0.049880000000008806","0.012320000000000775"
"389","-0.01584833333333317","0.015081666666664736"
"390","-0.033684444444443865","0.019029999999999388"
"391","-0.030578571428572485","0.02890285714285718"
"392","-0.009584285714285759","0.028938571428572653"
"393","-0.02370199999999727","0.013143999999998357"
"394","-0.03853428571428858","0.04065142857142793"
"395","-0.007699999999992713","0.005810000000002091"
"396","-0.007335000000001202","0.0065400000000011005"
"397","-0.0045699999999975205","0.0034949999999991377"
"398","-0.009993333333331597","0.005871666666667015"
"399","-0.004489999999996996","0.007855000000000464"
"400","-0.025629999999999598","0.0126199999999983"
"401","-0.006469999999993092","0.006810000000001537"
"402","-0.003099999999996328","0.0028199999999998226"
"403","0.0","0.0"
"404","-0.010630000000006135","0.01624499999999962"
"405","-0.0018600000000030075","0.0063433333333347735"
"406","-0.003249999999999531","0.0037649999999995742"
"407","-4.69999999992865E-4","0.0069000000000016826"
"408","-0.006269534883718307","0.003883255813953708"
"409","-0.0076507142857147005","0.010139285714285557"
"410","-0.014660555555558119","0.016202222222223266"
"411","-0.018053076923074778","0.023165384615384872"
"412","-0.01342874999999566","0.009179999999999744"
"413","-0.01915071428571378","0.01596571428571433"
"414","-0.00757199999999898","0.007436999999999916"
"415","-0.009665714285714801","0.010787142857142535"
"416","-0.015149999999997258","0.008525833333333269"
"417","-0.02600874999999962","0.0148933333333335"
"418","-0.3342729268292676","0.5164080487804874"
"419","-0.014113157894734149","0.009485789473684204"
"420","-0.012106666666664663","0.013251111111110781"
"421","-0.0045900000000074215","0.0018199999999986005"
"422","-0.008229999999997517","0.06558000000000419"
"423","-0.010133333333328665","0.004359999999999549"
"424","-0.017940000000000067","0.02564499999999903"
"425","-0.008320000000000327","0.017250000000000654"
"426","-0.028027142857143823","0.012377142857142738"
"427","-0.02695700000000123","0.027106000000000918"
"428","-0.011842380952380353","0.014311428571428308"
"429","-0.011810000000006463","0.011336666666668549"
"430","-0.023229999999999862","0.01406333333333265"
"431","-0.017593333333332833","0.02455666666666545"
"432","-0.017732500000001927","0.0377149999999995"
"433","-0.06446749999999746","0.049424999999999386"
"434","-0.016060000000003072","0.015589999999999549"
"435","-0.031929999999999126","0.004625000000002544"
"436","-0.010581666666666342","0.010090000000000524"
"437","-0.011478571428573352","0.014185714285714721"
"438","-0.029820000000003215","0.025396666666666807"
"439","-0.052668750000000486","0.03659124999999985"
"440","-0.01674357142857121","0.013590714285714916"
"441","-0.031736000000000784","0.02793000000000063"
"442","0.0","0.0"
"443","-0.015959999999992647","0.0050299999999978695"
"444","-0.010766666666667627","0.012808333333332792"
"445","-0.01225499999999613","0.0027650000000001285"
"446","-0.00958750000000208","0.009422500000001222"
"447","-0.007926666666669746","0.007469999999999051"
"448","-0.024795000000004563","0.009774999999997647"
"449","-0.008172000000003265","0.010387999999998954"
"450","-0.011429999999997165","0.02038999999999902"
"451","-0.0022799999999989495","0.002700000000000813"
"452","-0.0037099999999981037","0.00975000000000037"
"453","-0.011322499999995017","0.004492500000001343"
"454","-0.007543333333333162","0.005964999999999776"
"455","-0.017428749999996995","0.016113749999999705"
"456","-0.016662962962959788","0.013739259259259529"
"457","-0.013636799999999312","0.006488000000000227"
"458","-0.015312000000001547","0.016264999999999575"
"459","-0.013119473684207307","0.018464210526314792"
"460","-0.012907500000005475","0.008480833333333196"
"461","-0.016102307692308342","0.013713846153846769"
"462","-0.009134999999998191","0.0076433333333329285"
"463","-0.009321111111112322","0.012261111111111155"
"464","-0.04368800000000306","0.03781800000000004"
"465","-0.011044999999995753","0.02943166666666741"
"466","0.0","0.0"
"467","-0.011420000000005833","0.0236199999999999"
"468","0.0","0.0"
"469","-0.029093333333335636","0.012880000000001482"
"470","-0.007736666666666281","0.005521666666666647"
"471","-0.05139999999999989","0.028000000000002245"
"472","-0.03475714285714293","0.025781428571428018"
"473","-0.051626666666662935","0.043996666666666094"
"474","-0.08203444444444664","0.0356222222222221"
"475","-0.06447199999999711","0.038833999999999945"
"476","-0.04934999999999157","0.038485000000001435"
"477","-0.01734000000000213","0.0081175"
"478","0.0","0.0"
"479","-0.06565999999999406","0.0992449999999998"
"480","0.0","0.0"
"481","-0.03995333333333188","0.024648333333331607"
"482","-0.045816666666665874","0.3754849999999994"
"483","-0.013353333333334069","0.012548333333333161"
"484","-0.03893750000000029","0.04765499999999889"
"485","-0.023353999999999785","0.024065999999999123"
"486","-0.10603680000000196","0.16593519999999956"
"487","-0.012819117647059302","0.01489558823529404"
"488","-0.01346764705882443","0.013161176470588199"
"489","-0.007906666666667346","0.00704555555555607"
"490","-0.011553000000000679","0.011332000000000874"
"491","-0.008455999999998198","0.00945999999999927"
"492","-0.006415000000000504","0.002125000000003041"
"493","-0.0010600000000025034","0.006330000000001945"
"494","0.0","0.0"
"495","0.0","0.0"
"496","0.0","0.0"
"497","-0.03441500000000275","0.010280000000001621"
"498","-0.004262499999999392","0.009372500000001338"
"499","-0.0039449999999909835","0.008879999999999555"
"500","-0.021361666666666206","0.023718333333334247"
"501","-0.008923750000000119","0.007969999999999366"
"502","-0.003968000000000416","0.012539999999999907"
"503","-0.019789090909091037","0.012731818181818707"
"504","-0.024078333333333053","0.021650000000000464"
"505","-0.015681111111105237","0.012588888888888365"
"506","-0.00937473684210488","0.009353684210526916"
"507","-0.011980277777780261","0.00760111111111112"
"508","-0.012501818181819018","0.008200909090910292"
"509","-0.010975833333332","0.018588333333333058"
"510","-0.028920000000004126","0.03136999999999901"
"511","-0.022816363636366077","0.024910909090908782"
"512","-0.014977857142856774","0.015197857142857834"
"513","-0.01730800000000272","0.018180000000000262"
"514","-0.031855000000001965","0.02937000000000145"
"515","-0.0034499999999866304","0.016699999999998383"
"516","-0.013181250000000588","0.00762375000000004"
"517","0.0","0.0"
"518","-0.02134999999999998","0.03171999999999642"
"519","-0.0272214285714287","0.036862142857142795"
"520","-0.026648888888888698","0.050927777777777315"
"521","-0.051476363636361426","0.030980909090907973"
"522","-0.08571666666666704","0.11934000000000111"
"523","-0.012669999999999959","0.030989999999999185"
"524","-0.027529999999998722","0.003680000000002792"
"525","-0.03757000000000055","0.02411500000000011"
"526","0.0","0.0"
"527","-0.014586666666669856","0.032133333333334235"
"528","-0.023151818181818905","0.025281818181819012"
"529","-0.014377777777779797","0.007805555555556509"
"530","-0.011958749999999796","0.011637500000000411"
"531","-0.03533444444444969","0.04389111111111058"
"532","-0.02101941176470615","0.0190858823529415"
"533","-0.01337624999999972","0.021044166666667124"
"534","-0.017742142857143404","0.018754285714286008"
"535","-0.014138888888888701","0.01280916666666718"
"536","0.0","0.0"
"537","-0.009480000000003486","0.04362000000000421"
"538","-0.005224999999995816","0.009664999999998258"
"539","-0.0435400000000025","0.0078533333333309"
"540","0.0","0.0"
"541","-0.03312333333333347","0.020583333333333325"
"542","-0.015219999999999345","0.0350950000000001"
"543","-0.03467000000000198","0.005339999999996792"
"544","-0.01967000000000496","0.004360000000001918"
"545","-0.008787500000003945","0.005382500000000512"
"546","-0.05754000000000161","0.015200000000000102"
"547","-0.0037366666666661295","0.005463333333331377"
"548","-0.0038199999999982024","0.005318999999999718"
"549","-0.005236249999991394","0.006076250000000005"
"550","-0.011559000000001162","0.01667700000000032"
"551","-0.014753999999997802","0.01275800000000018"
"552","-0.005123478260870229","0.012503478260869186"
"553","-0.01171571428571586","0.007977857142857354"
"554","-0.013010769230768769","0.013836410256410421"
"555","-0.01674749999999925","0.018518333333333487"
"556","-0.032828750000000184","0.014834999999998821"
"557","-0.029050000000002758","0.014196666666665672"
"558","-0.021303636363637937","0.018294545454545966"
"559","-0.034645000000005886","0.03273416666666732"
"560","-0.027267999999996562","0.02875399999999999"
"561","-0.05339090909091029","0.04421454545454557"
"562","-0.008119999999998129","0.010749999999999815"
"563","-0.008393999999999836","0.008323000000000035"
"564","0.0","0.0"
"565","-0.01313999999999993","9.800000000019793E-4"
"566","-0.011917692307692258","0.006203076923076841"
"567","-0.027369999999999745","0.01343833333333381"
"568","-0.0623699999999919","0.05440333333333077"
"569","-0.03038666666666323","-0.016856666666665632"
"570","0.0","0.0"
"571","-0.06912333333333365","0.09362999999999744"
"572","-0.009713571428571146","0.011685714285714204"
"573","-0.17601741176470573","-0.024723882352940763"
"574","-0.00981818181818203","-0.0038281818181822302"
"575","-0.03363399999999785","0.014163999999998822"
"576","-0.02198714285715044","0.011347142857143158"
"577","-0.05879333333333392","0.04499000000000011"
"578","-0.013676666666667595","0.014278888888889125"
"579","-0.021276666666670014","0.01906666666666486"
"580","-0.022767500000002272","0.018179999999999197"
"581","-0.02040583333333501","0.009271666666667086"
"582","-0.01612687499999943","0.016273124999999222"
"583","-0.01615999999999218","-0.00952999999999804"
"584","-0.03212999999999511","-0.0025900000000014245"
"585","0.0","0.0"
"586","0.0","0.0"
"587","-0.009615000000000151","-0.0055600000000008976"
"588","-0.0013750000000030127","0.012255000000003236"
"589","-0.005990769230769808","0.0076592307692307645"
"590","-0.004942727272725217","-0.009469999999999342"
"591","-0.008396000000000469","-0.0037279999999995537"
"592","-0.0017749999999985278","0.004249999999998977"
"593","-0.02783999999999942","-9.87499999999919E-4"
"594","-0.01746500000000495","-0.015233333333334542"
"595","0.0","0.0"
"596","-0.011856666666663074","0.0019075000000000248"
"597","-0.02571833333333314","-0.011376250000000532"
"598","-0.032403999999999655","-0.005249999999999489"
"599","-0.03665458333333523","-0.017291250000000574"
"600","-0.012382558139534818","7.079069767439904E-4"
"601","-1.3904159999999999","0.4575904999999999"
"602","-0.016783333333332706","-0.0029600000000004436"
"603","-0.03148249999999919","-0.0054874999999996454"
"604","-0.03208071428571608","4.4714285714318535E-4"
"605","-0.02326999999999657","-0.013265000000000526"
"606","0.0","0.0"
"607","-0.019970000000002895","-0.015040000000000421"
"608","-0.04317066666666183","0.02447800000000034"
"609","-0.052573333333330176","0.03751166666666528"
"610","-0.02819500000001085","-0.03813999999999673"
"611","0.0","0.0"
"612","-0.013410000000007471","-0.053930000000001144"
"613","-0.020618888888889114","-0.010902222222223182"
"614","-0.011846666666662268","-0.024343333333331902"
"615","-0.033766666666665834","-0.16111999999999918"
"616","0.0","0.0"
"617","-0.021086249999997086","-0.00927875000000089"
"618","-0.05623999999999777","-0.01585499999999958"
"619","-0.013600000000010937","-0.003989999999998162"
"620","-0.023083999999998283","-0.012765000000000271"
"621","-0.022760000000001838","-0.018210952380951845"
"622","0.0","0.0"
"623","-0.030910000000005766","-0.018183333333332996"
"624","-0.04444999999999766","-4.6999999999997044E-4"
"625","-0.03371500000000083","-0.03031499999999987"
"626","0.0","0.0"
"627","-0.020429999999997506","-0.01769999999999783"
"628","-0.01583866666666533","-0.009673333333334"
"629","-0.007946666666666621","-0.03183333333333375"
"630","-0.0038033333333350092","-0.005023333333333824"
"631","-0.006016000000002464","-0.006814000000001386"
"632","-0.5918761538461544","-0.44244169230769215"
"633","-0.005665000000002252","-0.007365000000000066"
"634","-0.020379999999995846","-0.0015400000000020952"
"635","-0.001314999999994626","-0.003959999999999297"
"636","-0.007630000000001284","-0.004896666666667215"
"637","-0.005524499999999577","-0.003443500000000199"
"638","-0.011705000000004517","-0.006140000000000256"
"639","-0.007782499999999359","-0.005020000000000913"
"640","-0.010007500000000391","-0.00596000000000263"
"641","-0.02317111111111103","-0.02463555555555609"
"642","-0.007434102564103066","-0.005897948717949256"
"643","-0.014301999999997862","-0.01415800000000047"
"644","-0.02649461538461723","-0.02808538461538513"
"645","-0.02293234042553288","-0.025100638297872024"
"646","-0.020583333333334508","-0.015769444444444898"
"647","-0.016357826086955577","-0.014037826086956598"
"648","-0.020492400000000542","-0.01774279999999905"
"649","-0.02136823529411495","-0.02469058823529396"
"650","-0.020446428571432307","-0.02249714285714331"
"651","-0.02737333333333088","-0.03134750000000016"
"652","-0.08488777777778012","-0.05899222222222278"
"653","-0.030864999999998588","-0.036086666666665934"
"654","-0.016894210526315515","-0.026622631578947533"
"655","-0.04129250000000084","-0.01710749999999983"
"656","-0.020700000000005048","-0.0022499999999965326"
"657","-0.025384999999992885","-0.02077000000000062"
"658","-0.05717999999998824","-0.06829500000000266"
"659","0.0","0.0"
"660","-0.03328333333333244","-0.004333333333333893"
"661","-0.013279999999999959","-0.022495000000001042"
"662","-0.04465999999999326","-0.04592500000000044"
"663","-0.020167499999992344","-0.02551250000000227"
"664","-0.016123749999995107","-0.02161750000000051"
"665","-0.002700000000000813","-0.004440000000002442"
"666","-0.032352500000000894","-0.03416500000000067"
"667","-0.02984666666666887","-0.022736666666668032"
"668","-0.03354666666666262","-0.029666666666665027"
"669","-0.011428333333328785","-0.013471666666665291"
"670","0.0","0.0"
"671","-0.009672499999997086","-0.009357499999998797"
"672","-1.149158461538463","-0.6866853846153843"
"673","-0.015189999999999296","-0.005246666666665807"
"674","-0.0018899999999995032","-0.008759999999998769"
"675","-0.021673750000000602","-0.018303749999998953"
"676","-0.02449999999999619","-0.010020000000000806"
"677","-0.003079999999997085","-0.004490000000000549"
"678","-0.0069300000000040995","-0.00910000000000366"
"679","-0.0040400000000010055","-0.0059966666666670205"
"680","0.0","0.0"
"681","-0.02044749999999773","-0.008367500000000305"
"682","-0.011789999999998932","-0.008953333333334257"
"683","-0.005261666666668201","-0.006901666666667102"
"684","0.0","0.0"
"685","-0.010770000000000834","-0.006010000000001625"
"686","-0.00827625000000154","-0.011076249999999899"
"687","-0.027763999999999102","-0.0316439999999993"
"688","-0.02273666666666685","-0.012638333333332122"
"689","-0.0043899999999972295","-0.007885000000000808"
"690","-0.11265294117647032","-0.11631352941176483"
"691","-0.021756956521740464","-0.023043913043478602"
"692","-0.01824372093023492","-0.021658604651162778"
"693","-0.01955923076923063","-0.024410192307692584"
"694","-0.019302500000000476","-0.014878214285714262"
"695","-0.015134000000001606","-0.010379600000000124"
"696","-0.01686727272727689","-0.01517818181818194"
"697","-0.018382499999994195","-0.015272499999999134"
"698","-0.02773000000000181","-0.020279999999998743"
"699","-0.09762333333333117","-0.04298666666666525"
"700","-0.019840000000002078","-0.029769999999999186"
"701","-0.02516124999999647","-0.014511249999998643"
"702","-0.01397333333333961","-0.035793333333331866"
"703","0.0","0.0"
"704","-0.06096666666666314","-0.1821366666666672"
"705","-0.012597499999999262","-0.04417500000000185"
"706","-0.04139666666666665","-0.022275555555555826"
"707","-0.03561142857142879","-0.015575714285714375"
"708","-0.006704000000000399","-0.0213239999999999"
"709","-0.032853749999997905","-0.02333874999999974"
"710","-0.034467333333334696","-0.014781999999999584"
"711","-0.021057500000000395","-0.022079999999999878"
"712","-0.03486600000000095","-0.009044000000000097"
"713","-0.01834999999999809","-0.012480000000000047"
"714","-0.018115000000006987","-0.01426000000000105"
"715","-0.015727999999998587","-0.020030000000002702"
"716","-0.015038888888888775","-0.009778888888889349"
"717","-0.01735000000000279","-0.008113333333334083"
"718","-0.01612999999999909","-0.011716250000001427"
"719","0.0","0.0"
"720","-0.017659999999999343","-0.004015000000002544"
"721","-0.013127499999999515","-0.026090000000000835"
"722","-0.012123750000000655","-0.02093250000000113"
"723","-0.03155500000000089","-0.006410000000000693"
"724","0.0","0.0"
"725","-0.014096666666664722","-0.005026666666668215"
"726","-0.01261000000000223","-0.005539999999996326"
"727","-0.014240000000000919","-0.0030550000000015842"
"728","-0.008359999999992596","-0.002089999999999037"
"729","-0.007410000000007244","-0.006660000000003663"
"730","-0.016862499999998448","-0.011400000000000077"
"731","-0.005277777777777715","-0.014235555555555458"
"732","-0.016883999999999587","-0.02482500000000023"
"733","-0.011272857142857211","-0.015781428571428485"
"734","-0.010580000000000526","-0.009772222222220172"
"735","-0.023467777777777914","-0.033653333333334326"
"736","-0.0332583333333325","-0.02607916666666747"
"737","-0.16971990990991","-0.07461522522522544"
"738","-0.020228196721311438","-0.017407213114753694"
"739","-0.012590476190476622","-0.011539047619046746"
"740","-0.025609583333331187","-0.016617916666666527"
"741","-0.017161999999999487","-0.03892833333333361"
"742","-0.02179249999999892","-0.01630916666666667"
"743","-0.017734375000001634","-0.008031249999999712"
"744","-0.9906800000000019","-0.43895692307692313"
"745","-0.04759599999999864","-0.027856000000001303"
"746","-0.09419500000000625","-0.06932166666666599"
"747","-0.03688599999999838","-0.03751999999999924"
"748","-0.019516666666664642","-0.019735333333333216"
"749","-0.01025181818181667","-0.012170000000000479"
"750","-0.018759999999995596","-0.026950000000000546"
"751","0.0","0.0"
"752","-0.013519999999998589","-0.03596833333333057"
"753","-0.01108888888888594","-0.01078555555555659"
"754","-0.01016606557377066","-0.006277049180327159"
"755","-0.006743749999998272","-0.012878124999997409"
"756","-0.3756805813953482","-0.023648604651162832"
"757","-0.022373888888889384","-0.016024999999999463"
"758","-0.031192499999998624","-0.0305962500000021"
"759","-0.04379499999999936","-0.018604999999997318"
"760","-0.04155399999999645","-0.01788599999999576"
"761","-0.017782499999998702","-0.017966249999999295"
"762","-0.02740714285714268","-0.026068571428570157"
"763","-0.013689999999996871","-0.006560000000003896"
"764","-0.005680000000012342","-0.004159999999998831"
"765","-0.0157350000000001","-0.016570999999999714"
"766","-0.03471500000000027","-0.021299999999996544"
"767","-0.005605000000009852","-0.0011450000000010618"
"768","-0.006022222222221608","-0.004799999999997893"
"769","-0.006757499999999084","-0.012504999999998212"
"770","-0.014583333333333096","-0.005976666666667185"
"771","-0.0067599999999951406","-0.008606666666660582"
"772","-0.007507857142856876","-0.005993571428569108"
"773","-0.012368000000002155","-0.012331999999997834"
"774","-0.008880000000002516","-0.01065000000000301"
"775","0.0","0.0"
"776","0.0","0.0"
"777","-0.006080000000004304","-0.017836666666660506"
"778","-0.007950000000008117","-0.010100000000008436"
"779","-0.0026599999999987745","-0.007293333333333152"
"780","-0.012302000000002523","-0.017885999999998604"
"781","-0.022566000000003326","-0.025748000000002946"
"782","-0.012777142857143329","-0.03216142857142858"
"783","-0.03944666666666722","-0.0289375000000008"
"784","-0.2189213978494616","-0.113138924731183"
"785","-0.026122777777780628","-0.028186666666666978"
"786","-0.022600000000000856","-0.021049999999999378"
"787","-0.013365675675675991","-0.014257297297296889"
"788","-0.023807894736841625","-0.023294561403508465"
"789","-0.014740000000000345","-0.02707041666666606"
"790","-0.027813199999999937","-0.026657599999999917"
"791","-0.04028095238095375","-0.024976666666666973"
"792","-0.01384041666666569","-0.012625000000000774"
"793","-0.02029416666666724","-0.009460833333333992"
"794","-0.016145652173909012","-0.009990434782609539"
"795","-0.013691000000000505","-0.014161333333333559"
"796","-0.05188000000000237","-0.03400749999999908"
"797","-0.018365999999997485","-0.004099999999998971"
"798","-0.030499999999989313","-6.600000000034356E-4"
"799","-0.003981999999999953","-0.0031469999999977462"
"800","-0.01346799999999746","-0.01859400000000022"
"801","-0.010995714285718756","-0.012179999999999731"
"802","-0.01508818181818462","-0.019343636363636563"
"803","-0.006406666666667486","-0.01806000000000078"
"804","-0.05951499999999991","-0.0043116666666674535"
"805","-0.022105999999999425","-0.006853999999995608"
"806","-0.010508571428569471","-0.008397142857142674"
"807","0.0","0.0"
"808","-0.03144666666666751","-0.016983333333335793"
"809","-0.013173333333333185","-0.021786666666663734"
"810","-0.0219225000000014","-0.0321599999999993"
"811","-0.03177500000000144","-0.025874999999999204"
"812","-0.012914999999994828","-0.006921666666665753"
"813","-0.011752500000003607","-0.006337499999998997"
"814","-0.008918571428571807","-0.009824999999999307"
"815","-0.014431249999996343","-0.013526249999999962"
"816","-0.009900555555554766","-0.007221111111108926"
"817","-0.009556666666666066","-0.005232499999998789"
"818","-0.01495666666667006","-0.006770000000000683"
"819","-0.006831999999997151","-0.007317999999997937"
"820","-0.005714285714285593","-0.009298571428567064"
"821","-0.0075507142857149335","-0.011007857142856839"
"822","-0.007094000000000733","-0.004695333333332978"
"823","-0.005924999999998922","-0.011438333333333143"
"824","-0.008524999999998784","-0.010859999999999204"
"825","-0.0056590909090908","-0.007160000000002175"
"826","-0.014308181818182416","-0.009480909090907697"
"827","-0.010404000000000479","-0.015245999999998362"
"828","-0.01712666666666725","-0.014959999999999715"
"829","-0.008931999999998653","-0.014375999999997191"
"830","-0.015554444444444156","-0.012925555555556103"
"831","-0.015353749999998278","-0.016477499999997924"
"832","-0.018267826086958806","-0.019435217391304913"
"833","-0.012272777777778762","-0.008527777777779022"
"834","-0.014947499999998707","-0.01685874999999933"
"835","-0.02065619047619222","-0.02471190476190483"
"836","-0.024659782608697455","-0.031674782608695946"
"837","-0.02271555555555614","-0.02371444444444511"
"838","-0.011419333333333271","-0.009221333333335243"
"839","-0.016593513513515207","-0.01131459459459392"
"840","-0.0070677777777790295","-0.005404444444444323"
"841","-0.011436875000001123","-0.007126249999997558"
"842","-0.016436190476189456","-0.014590000000001371"
"843","-0.018022500000007824","-0.023081250000002385"
"844","-0.025696666666661372","-0.012623333333327954"
"845","-0.014120000000010199","-0.01769666666667054"
"846","-0.004912499999999986","-0.0023650000000010607"
"847","0.0","0.0"
"848","0.0","0.0"
"849","-0.004133333333334359","-0.006153333333334861"
"850","-0.024125151515152397","-0.027006969696968842"
"851","-0.048207500000000625","-0.013022499999996384"
"852","-0.07176000000000116","-0.01973000000000269"
"853","-0.016353333333332404","-0.007006666666669048"
"854","-0.004680000000000462","-0.0104650000000035"
"855","-0.01087000000000297","-0.014576666666665497"
"856","-0.037500000000000235","-0.009613333333327034"
"857","-0.015800000000002257","-0.0027100000000004343"
"858","-0.02068999999999832","-0.008120000000002866"
"859","-0.008636666666666848","-0.005422499999997517"
"860","-0.006862499999999254","-0.011254166666664863"
"861","-0.008045294117646762","-0.011177058823527375"
"862","-0.023394285714286207","-0.01689714285714266"
"863","-0.009894285714286204","-0.014584999999999784"
"864","0.0","0.0"
"865","-0.01221400000000017","-0.00584800000000314"
"866","-0.0057875000000002785","-0.010512499999999037"
"867","-0.010306666666669647","-0.005609999999997228"
"868","-0.005613999999998498","-0.016012000000000626"
"869","-0.006844000000002381","-0.008989999999998588"
"870","-0.00597333333333457","-0.0047050000000012915"
"871","-0.014124999999999943","-0.00621750000000354"
"872","-0.007312857142856899","-0.00749714285714325"
"873","-0.018332727272728278","-0.013638181818182911"
"874","-0.009919999999998671","-0.01163111111110974"
"875","-0.01071749999999927","-0.004354999999999443"
"876","-0.008099411764706254","-0.00913882352941103"
"877","-0.012017500000000089","-0.011488333333330658"
"878","-0.011786250000003662","-0.007237500000000452"
"879","-0.00835500000000522","-0.007571249999995366"
"880","-0.010437692307694245","-0.006908461538462081"
"881","-0.009479591836735295","-0.009381836734694482"
"882","-0.01361962264150917","-0.01634867924528106"
"883","-0.01615903846153717","-0.024709230769231063"
"884","-0.013883749999995606","-0.019983749999999745"
"885","-0.020560810810809318","-0.025457567567566973"
"886","-0.011270526315788376","-0.011485263157894485"
"887","-0.013785945945946003","-0.010817162162162315"
"888","-0.00768076923077005","-0.007550384615384495"
"889","-0.009466046511630103","-0.005944883720931142"
"890","-0.0031839999999997795","-0.008358666666666181"
"891","-0.015058000000004767","-0.01599599999999981"
"892","-0.02874199999999689","-0.018115999999999133"
"893","-0.00470999999999977","-0.004669999999997287"
"894","0.0","0.0"
"895","0.0","0.0"
"896","-0.0058312499999995104","-0.008651249999999777"
"897","-0.010935000000000094","-0.016498999999998175"
"898","-0.007499999999998508","-0.012776666666667325"
"899","-0.011790000000000234","-0.016324000000003024"
"900","-0.05064833333333437","-0.022325000000000966"
"901","-0.02718142857143237","-0.04692285714285508"
"902","-0.014623333333333358","-0.0075733333333355786"
"903","-0.015135000000002119","-0.012377499999999486"
"904","-0.015270000000001597","-0.01063999999999865"
"905","-0.014866666666666362","-0.03010333333333411"
"906","-0.011703749999997903","-0.015207499999999818"
"907","-0.005984999999998765","-0.00864785714285635"
"908","-0.003603999999998564","-0.006103333333334149"
"909","-0.016272000000002153","-0.013291999999999148"
"910","-0.015056086956523428","-0.009408695652173919"
"911","-0.022697500000000186","-0.010399166666665257"
"912","-0.010485000000001854","-0.00819749999999786"
"913","-0.009790000000002408","-0.016709999999996228"
"914","-0.004199999999997317","-0.012700000000002376"
"915","-0.006342857142854541","-0.0040314285714282095"
"916","-0.008243999999997698","-0.00424600000000055"
"917","-0.009834999999997152","-0.0033200000000039864"
"918","-0.0046119999999987725","-0.0032560000000003697"
"919","-0.008107692307690356","-0.003676153846153778"
"920","-0.011429999999999194","-0.009438571428571407"
"921","-0.011992857142856346","-0.007645714285714129"
"922","-0.012747857142855423","-0.0073514285714263595"
"923","-0.011351428571429218","-0.003112857142857552"
"924","0.0","0.0"
"925","-0.018294117647059238","-0.014847647058823387"
"926","-0.017693333333331413","-0.006928888888887109"
"927","-0.20841818181818184","-0.4158290909090905"
"928","-0.022483428571427617","-0.023971999999999126"
"929","-0.011787333333334498","-0.015701666666665424"
"930","-0.009527368421053575","-0.015118421052630842"
"931","-0.009033333333332413","-0.013422222222222125"
"932","-0.010987307692306995","-0.012876153846153652"
"933","-0.016004166666665043","-0.010718333333332572"
"934","-0.010106785714286153","-0.010381428571428384"
"935","-0.010313661971829782","-0.012720985915493588"
"936","-0.009426923076921558","-0.009622820512818864"
"937","-0.18235227272727464","-0.14512454545454515"
"938","-0.03479399999999089","-0.022744000000000143"
"939","-0.025790000000000646","-0.019978000000000405"
"940","-0.0030800000000000033","-0.010168571428573208"
"941","0.0","0.0"
"942","-0.035623333333334006","-0.010666666666665492"
"943","-0.0045533333333346426","-0.010338888888891043"
"944","-0.01178230769230942","-0.02328538461538498"
"945","-0.013332499999999156","-0.0057616666666658505"
"946","-0.028106000000002497","-0.006275999999999726"
"947","-0.009972222222220297","-0.008070000000001996"
"948","-0.010141428571430617","-0.010529999999997739"
"949","-0.0026999999999901547","-0.0033900000000031127"
"950","-0.009484999999999744","-0.02742500000000092"
"951","-0.01089999999999236","-0.008690000000008524"
"952","-0.00971833333333135","-0.006690000000001343"
"953","-0.0257247368421052","-0.009048947368421224"
"954","-0.010396249999998997","-0.022661249999998745"
"955","-0.0104860714285721","-0.009650357142857604"
"956","-0.008816249999999304","-0.013437500000001101"
"957","-0.010184285714285377","-0.0035542857142871753"
"958","-0.0012800000000048328","-0.004680000000004014"
"959","-0.0030833333333362134","-0.008873333333333733"
"960","-0.007991999999998712","-0.010308000000000562"
"961","-0.006535000000006619","-0.00813500000000289"
"962","-0.011801999999998713","-0.003730000000000189"
"963","-0.009098000000000184","-0.009103999999999246"
"964","-0.006317142857141229","-0.006024285714286545"
"965","-0.0073300000000007986","-0.007358333333334244"
"966","-0.012480000000000255","-0.008566470588234284"
"967","-0.007911666666665576","-0.007590833333332843"
"968","-0.01261384615384578","-0.011446153846155046"
"969","-0.006301666666664356","-0.007541666666664781"
"970","-0.007991666666665509","-0.014004999999996196"
"971","-0.012815000000001575","-0.009422500000001222"
"972","-0.014817857142855726","-0.009934285714286213"
"973","-0.01194187499999888","-0.012837499999999835"
"974","-0.010910937500000273","-0.02006343750000039"
"975","-0.06061095238095301","-0.1016857142857128"
"976","-0.020637931034482315","-0.018432758620689514"
"977","-0.03244133333333347","-0.02377133333333319"
"978","-0.019727857142855094","-0.01656392857142817"
"979","-0.02728421052631727","-0.021724210526315346"
"980","-0.011414642857140223","-0.010167857142856411"
"981","-0.013212758620689402","-0.023892068965516478"
"982","-0.008828750000000163","-0.009544583333333042"
"983","-0.011747567567566248","-0.008410540540541401"
"984","-0.008086666666668426","-0.009316666666665677"
"985","0.0","0.0"
"986","0.0","0.0"
"987","0.0","0.0"
"988","-0.00815333333333331","-0.018006666666667098"
"989","0.0","0.0"
"990","-0.0036942857142870772","-0.0052499999999996915"
"991","-0.006503333333332861","-0.003793333333331835"
"992","-0.012395999999999852","-0.01782700000000261"
"993","-0.0033099999999997463","-0.004488000000000625"
"994","-0.01618285714285785","-0.008785714285714619"
"995","0.0","0.0"
"996","-0.013899999999996027","-0.019989999999999952"
"997","-0.006539999999998641","-0.010364615384615443"
"998","-0.005840000000001311","-0.010375999999999408"
"999","-0.005436428571429579","-0.007035000000000379"
"1000","-0.008833529411765288","-0.010802352941175453"
"1001","-0.0053537499999976035","-0.006079999999999863"
"1002","-0.007237222222222981","-0.006518888888887631"
"1003","-0.007527647058823812","-0.010060000000002008"
"1004","-0.009354999999995783","-0.007209999999989947"
"1005","-0.008053999999999917","-0.00884500000000088"
"1006","-0.004292000000000939","-0.003701999999999828"
"1007","-0.005223333333333358","-0.0046900000000060045"
"1008","-0.003673333333336378","-0.005219999999996598"
"1009","-0.004836666666669487","-0.0034633333333384067"
"1010","-0.006841999999997484","-0.004583999999999833"
"1011","-0.007652500000000728","-0.007933749999999407"
"1012","-0.004812500000001663","-0.01171750000000138"
"1013","-0.013335714285715434","-0.014332857142856068"
"1014","-0.008280625000000263","-0.011613125000001112"
"1015","-0.010308000000000206","-0.013507500000001116"
"1016","-0.007303333333332773","-0.025043333333338563"
"1017","-0.008460000000001244","-0.016058333333333508"
"1018","-0.014146000000005187","-0.014932000000001722"
"1019","-0.01342666666666048","-0.017719999999998255"
"1020","-0.00848555555555524","-0.01816555555555431"
"1021","-0.008333333333339965","-0.014946666666666886"
"1022","-0.013618888888892136","-0.034372962962963424"
"1023","-0.01385666666666907","-0.019623333333332955"
"1024","-4.999999998744897E-5","-0.013629999999992037"
"1025","0.0","0.0"
"1026","-0.04461000000000581","-0.14583000000000368"
"1027","-0.016260000000001315","-0.009948181818183405"
"1028","-0.011121590909092564","-0.01608886363636408"
"1029","-0.01379518518518439","-0.012054444444445075"
"1030","-0.002537500000002524","-0.008162499999997408"
"1031","-0.007672758620688177","-0.009136551724137758"
"1032","0.0","0.0"
"1033","0.0","0.0"
"1034","0.0","0.0"
"1035","-0.0033809090909094393","-0.00884363636364004"
"1036","-0.007807692307692695","-0.013336153846154821"
"1037","-0.005199999999999871","-2.750000000020236E-4"
"1038","-0.01566000000000045","-0.024420000000006326"
"1039","-0.01206083333333341","-0.005920000000000887"
"1040","-0.004932500000000228","-0.008252500000000218"
"1041","-0.00694666666666599","-0.006219444444443667"
"1042","-0.00359545454545311","-0.006949999999998175"
"1043","-0.01880500000000218","-0.003714999999996138"
"1044","-0.005152727272725663","-0.007344545454545487"
"1045","-0.007507647058825405","-0.004971176470587078"
"1046","-0.010021842105261183","-0.008628157894737518"
"1047","-0.010568571428567708","-0.006172857142856409"
"1048","-0.0059615000000002635","-0.006776999999999589"
"1049","-0.009859999999999074","-0.005538076923075918"
"1050","-0.009624545454544437","-0.005400909090910359"
"1051","-0.009398571428571399","-0.007101428571428211"
"1052","-0.007390000000003738","-0.007179999999998188"
"1053","0.0","0.0"
"1054","-0.004546666666665071","-0.005833333333337502"
"1055","-0.008157777777778423","-0.005172222222222602"
"1056","-0.007949999999998644","-0.008954999999999083"
"1057","-0.0045322222222223575","-0.010009999999998817"
"1058","-0.005561333333334536","-0.00985399999999951"
"1059","-0.012275833333333708","-0.008385833333332352"
"1060","-0.011763846153845984","-0.01127076923077051"
"1061","-0.006758666666665647","-0.008469333333332447"
"1062","-0.010403571428570655","-0.012132857142858151"
"1063","-0.009601428571429997","-0.010044285714282555"
"1064","-0.012784285714286423","-0.024987142857141414"
"1065","-0.017626666666664903","-0.01559666666666478"
"1066","-0.011628000000001748","-0.0031380000000012843"
"1067","-0.011117500000001002","-0.012080000000004532"
"1068","-0.017048000000002617","-0.02407400000000024"
"1069","-0.011454473684210972","-0.008476578947368477"
"1070","0.0","0.0"
"1071","0.0","0.0"
"1072","0.0","0.0"
"1073","0.0","0.0"
"1074","0.0","0.0"
"1075","0.0","0.0"
"1076","0.0","0.0"
"1077","0.0","0.0"
"1078","0.0","0.0"
"1079","0.0","0.0"
"1080","0.0","0.0"
"1081","-3.5999999999991594E-4","-0.00601999999999947"
"1082","-0.008447959183676947","-0.009932448979593927"
"1083","-0.05091055555555734","-0.04451629629629618"
"1084","-0.013735757575757936","-0.01368424242424156"
"1085","-0.010780769230766651","-0.013451538461538895"
"1086","-0.01880368421052607","-0.014638947368420705"
"1087","-0.0176515384615399","-0.015973076923077"
"1088","-0.01589045454545249","-0.014472272727273089"
"1089","-0.010320740740741609","-0.006416666666668094"
"1090","-0.016581363636361666","-0.013133181818184105"
"1091","-0.009786428571427816","-0.01036642857142819"
"1092","-0.016208333333333158","-0.010718333333331978"
"1093","-0.00786611111110997","-0.003753888888889081"
"1094","-0.009380625000000586","-0.010548125000000574"
"1095","-0.00604749999999991","-0.0044508333333303325"
"1096","-0.007786363636363414","-0.008574545454545753"
"1097","-0.008622499999999533","-0.011455000000001547"
"1098","-0.008120769230769244","-0.008476923076924638"
"1099","-0.011465999999999355","-0.012693000000000154"
"1100","-0.012513333333333302","-0.0066333333333309"
"1101","-0.015905000000000058","-0.014944999999998506"
"1102","-0.004477500000005463","-0.01588250000000002"
"1103","-0.010897499999998672","-0.021525000000002237"
"1104","-0.04386000000000223","-0.02466999999999331"
"1105","-0.02516000000000318","-0.032380000000003406"
"1106","-0.009979999999998768","-0.010040000000003602"
"1107","-0.023828000000000314","-0.01697199999999981"
"1108","-0.003536666666668964","-0.004560000000002636"
"1109","-0.009980000000001609","-0.019948000000002252"
"1110","-0.010769999999993729","-0.007830000000005555"
"1111","-0.007999999999995566","-0.003669999999999618"
"1112","-0.01495000000001312","-0.01127999999999929"
"1113","0.0","0.0"
"1114","0.0","0.0"
"1115","0.0","0.0"
"1116","0.0","0.0"
"1117","0.0","0.0"
"1118","0.0","0.0"
"1119","0.0","0.0"
"1120","0.0","0.0"
"1121","0.0","0.0"
"1122","0.0","0.0"
"1123","0.0","0.0"
"1124","0.0","0.0"
"1125","0.0","0.0"
"1126","0.0","0.0"
"1127","0.0","0.0"
"1128","-0.2835779069767442","-0.08690209302325612"
"1129","-0.005415479452055007","-0.0061884931506845445"
"1130","-0.007334444444442682","-0.00667583333333462"
"1131","-0.01141894736842095","-0.006766052631579063"
"1132","-0.14822836363636385","-0.3557290909090908"
"1133","-0.009990476190475661","-0.00874047619047536"
"1134","-0.006898749999998621","-0.009548749999997774"
"1135","-0.01278625000000233","-0.025548750000000453"
"1136","-0.017637999999999467","-0.01850499999999755"
"1137","-0.04824266666666735","-0.01778733333333283"
"1138","-0.008141999999998007","-0.008320000000000504"
"1139","-0.013035999999999603","-0.006944000000001438"
"1140","-0.008696000000000481","-0.012585999999998876"
"1141","-0.013095000000000153","-0.019405833333333195"
"1142","-0.0018699999999993722","-0.0032375000000008924"
"1143","-0.019353333333332518","-0.024296666666667004"
"1144","-0.012650000000004269","-0.0174799999999955"
"1145","0.0","0.0"
"1146","-0.007750000000005031","-0.022204999999996033"
"1147","-0.0015500000000017167","-0.010980000000010648"
"1148","-0.010500000000007503","-0.016770000000001062"
"1149","-0.025540000000003005","-0.007165000000000532"
"1150","0.0","0.0"
"1151","-0.007800000000003138","-0.007150000000002876"
"1152","-0.003425000000003564","-0.00596999999999781"
"1153","-0.01025000000000631","-0.01266000000000389"
"1154","-0.028229999999993538","-0.03836000000000439"
"1155","0.0","0.0"
"1156","0.0","0.0"
"1157","0.0","0.0"
"1158","0.0","0.0"
"1159","0.0","0.0"
"1160","0.0","0.0"
"1161","0.0","0.0"
"1162","0.0","0.0"
"1163","0.0","0.0"
"1164","0.0","0.0"
"1165","0.0","0.0"
"1166","0.0","0.0"
"1167","0.0","0.0"
"1168","0.0","0.0"
"1169","0.0","0.0"
"1170","0.0","0.0"
"1171","0.0","0.0"
"1172","0.0","0.0"
"1173","0.0","0.0"
"1174","0.0","0.0"
