"cell_id","acc_x","acc_y"
"0","0.0","0.0"
"1","0.0","0.0"
"2","0.0","0.0"
"3","0.03383999999999787","0.06082750000000001"
"4","0.020701999999997157","0.01376799999999998"
"5","0.007985000000005016","0.008619999999999989"
"6","0.009470000000003864","0.005902499999999977"
"7","0.0","0.0"
"8","0.0033866666666663527","0.005730000000000087"
"9","0.0","0.0"
"10","0.002752499999996161","0.0015225000000000932"
"11","0.0","0.0"
"12","0.0","0.0"
"13","0.0","0.0"
"14","0.0","0.0"
"15","0.009059999999990964","0.008639999999999981"
"16","0.007730000000005788","0.005390000000000006"
"17","0.0036628571428565238","0.0075200000000000345"
"18","0.006440000000002044","0.0063739999999998355"
"19","0.0","0.0"
"20","0.01759999999999806","0.004344999999999932"
"21","0.0012199999999999989","0.005145000000000122"
"22","0.008258000000002142","0.005499999999999927"
"23","0.0035214285714277238","0.007317142857142895"
"24","0.005824999999999155","0.005866666666666687"
"25","0.00768200000000121","0.0065960000000000575"
"26","0.0031428571428569235","0.006062857142857132"
"27","0.009745555555554909","0.009339999999999966"
"28","0.01008199999999988","0.010700000000000065"
"29","0.005563333333337066","0.020556666666666668"
"30","0.022844999999997857","0.016174999999999957"
"31","0.014029111111110461","0.011417999999999987"
"32","0.012858846153845933","0.017113461538461515"
"33","0.044509047619048454","0.019800476190476243"
"34","0.01794824561403455","0.009814736842105279"
"35","0.014787499999999731","0.020613749999999986"
"36","0.013303999999996563","0.014157999999999981"
"37","0.004555999999999472","0.00972000000000004"
"38","0.008889166666664986","0.014252499999999982"
"39","0.010548333333331704","0.008060555555555564"
"40","0.007500800000003096","0.006546800000000017"
"41","0.012846562500001232","0.01588968750000001"
"42","0.013499857142857813","0.012730428571428556"
"43","0.010239215686273773","0.009758333333333338"
"44","0.0176510256410276","0.016157435897435925"
"45","0.007963273809524043","0.010812321428571418"
"46","0.003075555555557546","0.0031538888888888636"
"47","0.0","0.0"
"48","0.0","0.0"
"49","0.0","0.0"
"50","0.02747666666666741","0.030833333333333417"
"51","0.0","0.0"
"52","0.014590000000000103","0.014590000000000103"
"53","0.014484999999999637","0.007349999999999968"
"54","0.007239999999999825","0.008431999999999907"
"55","0.007787777777776641","0.012102222222222162"
"56","0.0","0.0"
"57","0.1260780000000038","1.4818639999999998"
"58","0.0023521739130437118","0.0017491304347826372"
"59","0.007418333333333749","0.008596666666666733"
"60","0.012366000000003652","0.006733999999999796"
"61","0.005036000000004037","0.004046000000000216"
"62","0.004415999999999087","0.005764000000000014"
"63","0.008103333333333277","0.006066666666666591"
"64","0.003907500000000397","0.00572875000000006"
"65","0.00451249999999348","0.004169999999999896"
"66","0.005263333333334212","0.0040283333333335225"
"67","0.007629166666666502","0.006556666666666618"
"68","0.004617499999999571","0.004360833333333369"
"69","0.0066728571428557515","0.0049"
"70","0.005719999999999459","0.00537600000000007"
"71","0.01230750000000036","0.00812249999999981"
"72","0.008081428571427653","0.004765714285714421"
"73","0.005150000000002801","0.009710000000000107"
"74","0.007744545454545847","0.00731000000000013"
"75","0.017516666666663145","0.015203333333333383"
"76","0.00855857142857224","0.017763571428571514"
"77","0.01199100000000115","0.020199999999999864"
"78","0.015268888888888752","0.030084444444444407"
"79","0.02011923076922856","0.02297076923076931"
"80","0.018319000000005303","0.02685900000000001"
"81","0.023511999999999488","0.04593600000000002"
"82","0.004409999999997656","0.01396666666666683"
"83","0.028950799999998368","0.02306160000000002"
"84","0.009176363636363115","0.008800909090909177"
"85","0.007914285714288585","0.010845714285714412"
"86","0.006831666666667975","0.015056666666666718"
"87","0.008780740740741488","0.012466296296296238"
"88","0.009016428571427529","0.01190857142857146"
"89","0.017462941176470494","0.01995176470588221"
"90","0.007197777777776082","0.01143166666666663"
"91","0.008570000000001224","0.00961500000000004"
"92","0.015024999999997337","0.017061428571428585"
"93","0.0","0.0"
"94","0.0","0.0"
"95","0.0","0.0"
"96","0.0","0.0"
"97","0.043257500000003946","0.03150999999999948"
"98","0.01666999999999952","0.01009749999999987"
"99","0.01622666666666639","0.005983333333333303"
"100","0.010973333333332983","0.007076666666666398"
"101","0.008608888888888642","0.008666666666667242"
"102","0.014450000000000074","0.009094999999999942"
"103","0.014593333333335796","0.0122813333333335"
"104","0.007921999999998756","0.007286666666666649"
"105","0.011192692307691213","0.009376923076922915"
"106","0.00767000000000273","0.009117500000000112"
"107","0.007997499999997881","0.009643750000000006"
"108","0.00902093749999966","0.008161874999999902"
"109","0.010907142857144083","0.017498214285714266"
"110","0.007553333333334559","0.004633333333333341"
"111","0.004068571428570676","0.011042857142857163"
"112","0.010074999999996948","0.010967500000000241"
"113","0.00349666666666811","0.006019999999999766"
"114","0.0023774999999996993","0.004102500000000009"
"115","0.004679999999995725","0.004906666666666837"
"116","0.0027200000000036084","0.017039999999999722"
"117","0.0034100000000023556","0.007849999999999469"
"118","0.006959999999999411","0.012749999999999595"
"119","0.003299999999995862","0.009570000000000078"
"120","0.0045175000000021726","0.008625000000000105"
"121","0.003815000000000642","0.007314999999999887"
"122","0.010153333333332645","0.006543333333333716"
"123","0.006289999999999907","0.007086666666666908"
"124","0.022105000000001596","0.016884999999999817"
"125","0.018862500000000004","0.01405249999999969"
"126","0.01820333333333816","0.018468333333333458"
"127","0.037175555555555045","0.021407777777777692"
"128","0.02764826086956626","0.021054782608695647"
"129","0.02320749999999876","0.015857500000000014"
"130","0.024774999999999856","0.02787730769230751"
"131","0.018245263157892492","0.015071578947368477"
"132","0.028227000000002535","0.021028000000000092"
"133","0.01748000000000142","0.011781666666666654"
"134","0.006935000000002641","0.005602142857142793"
"135","0.006846000000000174","0.009250000000000248"
"136","0.0","0.0"
"137","0.020943333333334414","0.024087619047619007"
"138","0.004963636363634485","0.004959090909090817"
"139","0.015159999999987406","0.008767499999999595"
"140","0.0","0.0"
"141","0.0","0.0"
"142","0.009850000000000136","0.008619999999999628"
"143","0.001974999999999838","0.00500249999999991"
"144","0.01156857142857375","0.008599999999999877"
"145","0.02259939393939356","0.023243030303030238"
"146","0.012739130434783195","0.011331304347825984"
"147","0.010824473684210092","0.005841052631578835"
"148","0.014166842105263575","0.008467368421052663"
"149","0.013487999999999545","0.005243999999999804"
"150","0.017048529411762745","0.009954705882352954"
"151","0.009207500000001811","0.01807375000000011"
"152","0.010023720930233801","0.012077906976744088"
"153","0.0067980000000000965","0.014114000000000182"
"154","0.014533749999997791","0.007407499999999789"
"155","0.016324166666665658","0.018364999999999892"
"156","0.014125555555555676","0.013344444444444332"
"157","0.006672500000000525","0.02066749999999984"
"158","0.021358888888888334","0.008545555555555338"
"159","4.53333333335119E-4","0.004086666666666498"
"160","0.007320000000007099","0.005670000000000286"
"161","0.002487500000000864","0.010485000000000078"
"162","0.0036733333333340092","0.005526666666666309"
"163","0.005506000000001165","0.005344000000000015"
"164","0.007168888888888287","0.011592222222222028"
"165","0.003201000000001386","0.006319499999999856"
"166","0.003138571428573909","0.0077942857142856425"
"167","0.004222142857143142","0.011132857142857309"
"168","0.00961125000000429","0.010142499999999721"
"169","0.011937272727273941","0.015087272727272656"
"170","0.015279333333331617","0.016062000000000094"
"171","0.017468999999998756","0.019492500000000135"
"172","0.020347631578946777","0.017843684210526466"
"173","0.022004999999998276","0.017016666666666496"
"174","0.03335458333333049","0.03806750000000018"
"175","0.029905312500001724","0.023720000000000158"
"176","0.02627615384615795","0.01687461538461549"
"177","0.010307142857140914","0.008753571428571456"
"178","0.019031999999990036","0.015904999999999968"
"179","0.026112857142858763","0.022935714285714504"
"180","0.0167479999999955","0.011942000000000341"
"181","0.01961200000000076","0.033637999999999835"
"182","0.03601833333333815","0.018990000000000062"
"183","0.009112000000001785","0.022578000000000032"
"184","0.0034500000000008413","0.007495000000000029"
"185","0.021045833333336834","0.017370000000000035"
"186","0.02764999999999418","0.0020300000000013085"
"187","0.032671428571429066","0.05481000000000031"
"188","0.0","0.0"
"189","0.0","0.0"
"190","0.0022499999999941642","0.0025566666666669846"
"191","0.006660000000000056","0.007610816326530779"
"192","0.009580434782610928","0.020576086956521748"
"193","0.05011341463414809","0.6204317073170726"
"194","0.010682444444445396","0.007922888888888913"
"195","0.011784761904760273","0.006315238095237892"
"196","0.010806428571430564","0.009913571428571697"
"197","0.024826296296292898","0.02026518518518505"
"198","0.017619999999999754","0.016908965517241283"
"199","0.012494318181818414","0.008426590909090733"
"200","0.013659999999998403","0.011092592592592728"
"201","0.012167499999997963","0.013132499999999622"
"202","0.010332666666666056","0.008221333333333192"
"203","0.015953333333333337","0.008312222222222153"
"204","0.02875857142856881","0.006507142857143171"
"205","0.010316923076922207","0.007993076923076714"
"206","0.006493333333333832","0.00592111111111097"
"207","0.00869181818182147","0.010270909090909603"
"208","0.007600000000000051","0.0047900000000002056"
"209","0.007432222222223099","0.006727777777777296"
"210","0.006904285714284697","0.007722857142858126"
"211","0.007896666666662592","0.004169999999999143"
"212","0.005362758620688281","0.0048686206896552614"
"213","0.008342500000003028","0.0061475000000004165"
"214","0.007869999999999303","0.007773333333333336"
"215","0.00884099999999961","0.01042000000000023"
"216","0.03023999999999814","0.020106428571428303"
"217","0.016012941176470844","0.013642941176470495"
"218","0.019062857142857853","0.019562857142857618"
"219","0.02798818181818451","0.018781818181818656"
"220","0.009099999999996009","0.01773230769230785"
"221","0.018031864406778897","0.021112033898305013"
"222","0.01379624999999951","0.02116156250000023"
"223","0.01748864864864795","0.018274864864864838"
"224","0.024786666666666218","0.031742777777777675"
"225","0.021611111111111667","0.023888333333333192"
"226","0.016446315789475596","0.02038157894736837"
"227","0.005393333333334264","0.012036000000000158"
"228","0.03536000000000191","0.02581777777777826"
"229","0.0290880000000044","0.02326799999999931"
"230","0.02589428571428495","0.024698571428571015"
"231","0.02595749999999697","0.026644999999999808"
"232","0.017484999999993533","0.0349699999999995"
"233","0.033795000000004904","0.01812900000000024"
"234","0.03332200000000114","0.016458000000000795"
"235","0.0","0.0"
"236","0.003477499999998704","0.005292812500000299"
"237","0.008019545454546943","0.005797272727272717"
"238","0.2581229032258063","0.28303290322580615"
"239","0.006349756097561913","0.008073170731707132"
"240","0.01446170731707254","0.011123902439024174"
"241","0.008339615384615686","0.006607500000000014"
"242","0.00795782608695492","0.005583913043477712"
"243","0.008261724137930597","0.011338275862068684"
"244","0.013719999999999288","0.01687472222222233"
"245","0.013864545454545407","0.013003863636363673"
"246","0.011697647058823937","0.010598529411764456"
"247","0.01576403846153757","0.020404038461538487"
"248","0.010110999999998871","0.01576424999999997"
"249","0.011518947368421021","0.0056589473684211964"
"250","0.010770000000001395","0.0043836842105257475"
"251","0.009635833333335361","0.0072783333333340154"
"252","0.009831999999998686","0.0035220000000000693"
"253","0.004938888888887839","0.007084444444444276"
"254","0.007309999999999977","0.004191111111111528"
"255","0.00530625000000029","0.004647499999999916"
"256","0.010902727272729541","0.005413636363636181"
"257","0.005011666666668191","0.007798333333332981"
"258","0.0037216666666696576","0.004951666666666317"
"259","0.004715238095236546","0.006165714285714668"
"260","0.007012727272727917","0.010109090909090764"
"261","0.008122500000000699","0.008390000000000786"
"262","0.0075605882352952425","0.008284117647058994"
"263","0.010939555555555418","0.01078888888888889"
"264","0.018536874999999675","0.016080625000000293"
"265","0.02106878048780411","0.016648048780487677"
"266","0.031550526315791","0.03422263157894749"
"267","0.02130812499999979","0.02184468750000007"
"268","0.015346086956520327","0.02818217391304323"
"269","0.6574203124999962","0.3667675000000001"
"270","0.020661176470585976","0.01871558823529378"
"271","0.014358500000001584","0.0204570000000003"
"272","0.009852500000001521","0.007633749999999884"
"273","0.015306000000000352","0.009506499999999907"
"274","0.012461666666668","0.011641666666666476"
"275","0.01248549999999895","0.013932249999999913"
"276","0.022555294117648325","0.017891764705882326"
"277","0.004063194444443536","0.004852222222222159"
"278","0.010289999999989164","0.024608000000000275"
"279","0.0067869999999985","0.013405999999999807"
"280","0.010181428571430371","0.006440000000000572"
"281","0.0","0.0"
"282","0.0","0.0"
"283","0.009553333333332192","0.008268333333333247"
"284","0.01015818181818038","0.013780000000000004"
"285","0.016331250000000946","0.06401354166666688"
"286","0.005357586206895771","0.005395517241379176"
"287","0.006567833333332847","0.00765550000000023"
"288","0.008211190476189128","0.009355238095238269"
"289","0.012518529411764078","0.012555294117647076"
"290","0.21894033898305146","0.47234423728813596"
"291","0.005366470588234218","0.006847352941176436"
"292","0.013002380952381947","0.01522452380952366"
"293","0.014781724137933373","0.00819034482758645"
"294","0.008046785714285853","0.006503928571428753"
"295","0.008110000000000693","0.00955230769230753"
"296","0.006968518518519055","0.006107037037036831"
"297","0.008562499999999362","0.005074375000000186"
"298","0.008003000000001492","0.009781000000000262"
"299","0.004491666666670113","0.0048833333333329065"
"300","0.008531818181818484","0.006378181818181616"
"301","0.012910000000001531","0.007322500000000787"
"302","0.006538571428570046","0.006769999999999499"
"303","0.004473999999999733","0.006273999999999979"
"304","0.0057110000000008656","0.0036399999999998656"
"305","0.00540833333332813","0.005749999999999922"
"306","0.0083754545454556","0.006228181818181805"
"307","0.012600000000003005","0.013126666666666904"
"308","0.007194545454548906","0.004798181818182166"
"309","0.00878666666666561","0.008006666666666126"
"310","0.009388275862068819","0.009034482758620338"
"311","0.4338753571428567","1.1809710714285717"
"312","0.020350487804876832","0.013113170731707483"
"313","0.01725772727272844","0.013631818181818467"
"314","0.01771884615384641","0.02279538461538433"
"315","0.02828599999999497","0.02268350000000021"
"316","0.022255333333328055","0.02401733333333335"
"317","0.02149484848484745","0.020242424242424274"
"318","0.45643384615384835","0.2359880769230769"
"319","0.010501612903227405","0.020807419354838774"
"320","0.022837647058824975","0.04028823529411696"
"321","0.010047692307687966","0.010458076923076449"
"322","0.007233333333334057","0.009219999999999801"
"323","0.01602809523809495","0.018492380952381055"
"324","0.26244178571428584","0.7017171428571428"
"325","0.027073333333338685","0.019139999999998974"
"326","0.0038724999999999454","0.023255000000000692"
"327","0.0033299999999982788","0.005428333333333886"
"328","0.017196666666663418","0.018200000000000216"
"329","1.020163414634147","0.6125831707317076"
"330","0.06667166666666845","0.2617301666666665"
"331","0.4802659433962268","0.2927413207547171"
"332","0.010079285714286004","0.007647499999999775"
"333","0.012471224489795318","0.007003061224490042"
"334","0.011810227272728695","0.008383636363636583"
"335","0.009994153846155249","0.009621384615384853"
"336","0.010759672131146902","0.010363442622950768"
"337","0.008497250000001389","0.008484999999999809"
"338","0.009178333333334858","0.00977799999999996"
"339","0.008881923076923242","0.009484230769230951"
"340","0.010646129032257744","0.007591612903225888"
"341","0.016200588235294792","0.022642941176470418"
"342","0.006893750000000143","0.009532291666666914"
"343","0.007602499999997847","0.007585937499999973"
"344","0.010681666666665516","0.004251666666666469"
"345","0.0","0.0"
"346","0.009912222222223951","0.007417777777778017"
"347","0.008783000000000384","0.004672000000000409"
"348","0.008192999999999983","0.004691000000000045"
"349","0.006498750000000442","0.008563749999999759"
"350","0.005496000000003676","0.005038000000000054"
"351","0.0031333333333283995","0.008119999999999905"
"352","0.004366666666662411","0.007069999999999983"
"353","0.002876666666669081","0.004776666666666725"
"354","0.011196000000001049","0.011808000000000263"
"355","0.0033000000000029672","0.012570000000000192"
"356","0.036744999999999806","0.023149999999999338"
"357","0.007054090909091764","0.0075931818181820465"
"358","0.012192258064515264","0.014977419354838987"
"359","0.014965769230769865","0.009796538461538367"
"360","0.012841249999999249","0.024813124999999436"
"361","0.0268532352941189","0.030080588235294137"
"362","0.017992352941177233","0.018818823529411645"
"363","0.016481851851853295","0.02198592592592624"
"364","0.010598421052631429","0.010376842105263356"
"365","0.016967391304345124","0.015977826086956602"
"366","0.008128378378377822","0.010170540540540209"
"367","0.1451295833333326","0.9918433333333327"
"368","0.009303333333334165","0.010993333333333279"
"369","0.01211083333333581","0.02937833333333358"
"370","0.47684139344262244","0.10682024590163959"
"371","0.024855609756097272","0.08468902439024385"
"372","0.03529333333333428","0.014065294117647103"
"373","0.0","0.0"
"374","0.01673666666666899","0.005553333333334483"
"375","0.03786000000000911","0.006380000000001829"
"376","0.005854999999996835","0.011865000000000236"
"377","0.02307653846153708","0.018515769230768562"
"378","0.23434273291925536","0.09384639751552792"
"379","0.06413083769633506","0.06986460732984297"
"380","0.007282142857141365","0.005494107142857395"
"381","0.01383854838709742","0.010296129032258445"
"382","0.010856986301370178","0.008036164383561535"
"383","0.009610983606556807","0.009540819672131195"
"384","0.009170606060608448","0.006911212121212626"
"385","0.014287352941179044","0.008615294117647125"
"386","0.006449024390244461","0.009303902439024491"
"387","0.015870000000000335","0.010565384615385134"
"388","0.016216666666666175","0.024644444444444247"
"389","0.009189047619048247","0.008001428571428482"
"390","0.159100833333332","0.2958187499999998"
"391","0.005776666666666763","0.012203333333333491"
"392","0.005437857142856828","0.004484999999999977"
"393","0.005376153846153915","0.005387692307692349"
"394","0.004900000000001725","0.003583000000000158"
"395","0.005136666666666024","0.00378111111111047"
"396","0.0075555555555553156","0.006092222222222116"
"397","0.01032818181818323","0.008523636363636329"
"398","0.00506666666666749","0.006981111111111697"
"399","0.00633230769230791","0.005028461538461379"
"400","0.010712999999999796","0.010928999999999434"
"401","0.0","0.0"
"402","0.007404000000000603","0.009170666666667888"
"403","0.006675625000002849","0.008928124999999842"
"404","0.011851666666667407","0.009250833333333652"
"405","0.011755500000000297","0.01231800000000014"
"406","0.015347391304346827","0.011518695652173899"
"407","0.03501555555555708","0.0333477777777781"
"408","0.01694041666666705","0.014010416666666655"
"409","0.02258157894736787","0.033148421052631605"
"410","0.012026842105264654","0.01311894736842178"
"411","0.012751081081080659","0.0105078378378377"
"412","0.011605200000001332","0.014785600000000159"
"413","0.0066992857142815455","0.010914285714286416"
"414","0.013254615384615075","0.00829538461538485"
"415","0.005932727272728109","0.007898181818181561"
"416","0.021974999999997635","0.013880000000001225"
"417","0.012769268292683548","0.013060243902439244"
"418","0.18197777777777852","0.18841047619047546"
"419","0.022049130434784004","0.012883043478260796"
"420","0.03386333333333072","0.033109999999999654"
"421","0.010166666666663104","0.017983333333334645"
"422","0.02098999999999762","0.013825000000000642"
"423","0.009682727272722114","0.005059999999999318"
"424","0.009633888888887141","0.009757222222222417"
"425","0.009325324675324247","0.007837532467532386"
"426","0.008710491803279274","0.009506557377048806"
"427","0.012063737373737362","0.011752222222222369"
"428","0.01045600000000002","0.010934000000000074"
"429","0.007189272727271726","0.007191818181818312"
"430","0.012131212121213422","0.008983939393939051"
"431","0.011275000000001789","0.006683750000000543"
"432","0.013162121212121273","0.006943333333333375"
"433","0.01441533333333472","0.010288333333333573"
"434","0.011939459459457694","0.008970540540540748"
"435","0.0104847368421068","0.007926315789472414"
"436","0.008786842105264463","0.007897894736841724"
"437","0.008448571428571836","0.009964285714285584"
"438","0.007490909090909396","0.007702727272726987"
"439","0.005820833333333238","0.004532500000000124"
"440","0.005076999999999998","0.006346000000000273"
"441","0.0048429166666652534","0.0054954166666663085"
"442","0.00773428571428728","0.005451428571427235"
"443","0.003135000000000332","0.0077350000000002694"
"444","0.003650000000000375","0.0027700000000017155"
"445","0.0032275000000048237","0.00386749999999747"
"446","0.011879999999997892","0.0047966666666674485"
"447","0.011494000000001846","0.006637999999998101"
"448","0.006375000000000242","0.004745833333333671"
"449","0.005147499999997862","0.00817999999999941"
"450","0.018161428571430754","0.013222857142857489"
"451","0.01260181818181717","0.014649090909091196"
"452","0.019712142857142418","0.014909999999999661"
"453","0.008327090909090694","0.010226727272727294"
"454","0.01963263157894645","0.026825789473684723"
"455","0.011438666666666581","0.023171999999999335"
"456","0.021566999999998872","0.01553900000000077"
"457","0.010112222222225064","0.006655555555556229"
"458","0.021495333333335982","0.01972933333333297"
"459","0.014104615384617056","0.009715384615384655"
"460","0.006846666666671947","0.010008888888887353"
"461","0.02007545454545514","0.015414545454545025"
"462","0.009640999999999168","0.011763999999999797"
"463","0.016084210526314206","0.009026842105264353"
"464","0.008441851851849244","0.011789629629629891"
"465","0.021641428571425893","0.02119714285714228"
"466","0.02100749999999607","0.02454624999999977"
"467","0.03381999999999863","0.03945500000000083"
"468","0.016114999999996844","0.018923333333333403"
"469","0.013937142857149152","0.014725714285713565"
"470","0.009193999999999392","0.008992999999999895"
"471","0.0171350000000012","0.021116428571428765"
"472","0.0192173170731703","0.026506585365853604"
"473","0.013925777777776992","0.018978444444443927"
"474","0.013871249999999875","0.009951785714285741"
"475","0.016407647058823367","0.010989705882352773"
"476","0.008717037037038024","0.012990740740741058"
"477","0.010221333333333978","0.007485000000000023"
"478","0.010331666666665443","0.01165833333333346"
"479","0.018285185185185862","0.006580370370371258"
"480","0.009440999999998922","0.010075333333333703"
"481","0.010771999999998911","0.007570400000000177"
"482","0.012491666666665284","0.009752222222222507"
"483","0.009025500000000086","0.009858999999999262"
"484","0.006566250000002771","0.009847499999999787"
"485","0.007798571428569545","0.0029699999999992194"
"486","0.010303333333332098","0.013392222222222076"
"487","0.006775714285714075","0.006624285714285654"
"488","0.005935999999999334","0.003591333333333798"
"489","0.0","0.0"
"490","0.005195000000000505","0.005972499999999492"
"491","0.011761666666666079","0.011821666666666175"
"492","0.0038090000000011058","0.00540700000000065"
"493","0.006040000000002266","0.005328749999999438"
"494","0.008116249999998715","0.01315500000000025"
"495","0.006135000000001156","0.009062999999999021"
"496","0.009106363636362212","0.005578181818182512"
"497","0.014654000000000167","0.01742800000000031"
"498","0.01422375000000109","0.019588750000000488"
"499","0.011314999999999742","0.008328500000000183"
"500","0.020100400000000036","0.0207556000000001"
"501","0.017050769230769227","0.012310769230769125"
"502","0.0112545000000015","0.026057499999998866"
"503","0.008382499999999737","0.01636375000000001"
"504","1.0896690000000007","0.07569599999999888"
"505","0.008411999999999864","0.014515999999999706"
"506","0.013525999999998817","0.013954000000000378"
"507","0.04954111111111419","0.026961111111110842"
"508","0.015942500000001303","0.05299749999999914"
"509","0.021048999999996452","0.015764999999999675"
"510","0.017370588235297312","0.0175429411764706"
"511","0.03284200000000131","0.03533199999999989"
"512","0.022893333333335084","0.022456666666665608"
"513","0.020816250000002867","0.007017499999999011"
"514","0.06080375000000515","0.06275875000000042"
"515","0.021954999999998392","0.04358499999999843"
"516","0.007263333333336656","0.015758333333333024"
"517","0.02228000000000106","0.04047428571428518"
"518","0.009247499999999262","0.0065266666666659034"
"519","0.018051875000001605","0.01823375000000038"
"520","0.01728954545454459","0.018374090909090913"
"521","0.021811724137930748","0.012780689655172348"
"522","0.008030322580643475","0.009406451612902619"
"523","0.011211666666664448","0.010517222222222067"
"524","0.11997249999999911","0.051158250000000204"
"525","0.010905937499999518","0.007864375000000035"
"526","0.011143947368421473","0.010894210526316223"
"527","0.008670000000000044","0.006085999999999814"
"528","0.013708749999999714","0.006245000000000722"
"529","0.02041535714285736","0.01175642857142835"
"530","0.014901176470586067","0.012886470588235418"
"531","0.010850000000001803","0.025905000000000067"
"532","0.006816666666665287","0.006015833333333849"
"533","0.0","0.0"
"534","0.0053799999999995405","0.008487999999999118"
"535","0.010115000000001354","0.005441666666666123"
"536","0.0071600000000009755","0.004145714285713658"
"537","0.006451818181815192","0.009734545454545118"
"538","0.006170000000000187","0.0036739999999994668"
"539","0.003517999999999688","0.005676000000001125"
"540","0.011083333333336517","0.002806666666666994"
"541","0.007429999999995829","0.00727499999999992"
"542","0.007635000000002871","0.009036666666666212"
"543","0.008940000000002613","0.003009999999999735"
"544","0.01861333333333211","0.02527333333333459"
"545","0.010682857142855693","0.022467142857142415"
"546","0.013105000000000267","0.01295611111111208"
"547","0.014078113207546978","0.013629245283019245"
"548","0.016021499999999377","0.018099999999999738"
"549","0.01638218750000342","0.016867812500000023"
"550","0.015141764705880271","0.01776352941176431"
"551","0.009963749999997162","0.02182749999999878"
"552","0.026215882352940745","0.0725847058823538"
"553","0.014105714285715212","0.02329714285714246"
"554","0.017706923076928022","0.01960076923076916"
"555","0.004780000000010887","4.6999999999997044E-4"
"556","0.010979999999999279","0.014868000000000237"
"557","0.011059285714287017","0.015269285714284717"
"558","0.03306999999999789","0.0350120000000004"
"559","0.0071283333333317005","0.015698333333332926"
"560","0.027962500000001","0.04291999999999874"
"561","0.03768999999998357","0.09438000000000457"
"562","0.026899999999983493","0.033229999999996096"
"563","0.013618571428574049","0.029367142857143085"
"564","0.007263333333331919","0.00959666666666692"
"565","0.024037499999998248","-0.02193999999999967"
"566","0.030468461538461576","-0.028785384615386097"
"567","0.021149354838709274","-0.006746774193548421"
"568","0.02006812500000014","-0.004065416666666562"
"569","0.009845925925925229","-0.0014548148148153981"
"570","0.021484736842105938","0.00546947368421027"
"571","0.019439600000000112","-0.0043571999999997505"
"572","0.010354516129033924","0.0018612903225806623"
"573","0.010508421052632593","5.271052631582276E-4"
"574","0.012933866666667248","0.005125733333333405"
"575","0.02686772727272555","-0.007696363636362785"
"576","0.008426363636365024","-6.218181818182183E-4"
"577","0.023869285714286242","0.01576928571428558"
"578","0.023674500000001507","0.0034669999999998426"
"579","0.06224153846153813","1.4258707692307686"
"580","0.04787000000000082","-0.0149366666666645"
"581","0.018576250000000627","0.008217499999999323"
"582","0.017514999999999503","0.0037016666666674545"
"583","0.017427500000002816","0.0017587500000004752"
"584","0.014351999999999521","0.010709999999998842"
"585","0.0016750000000023135","-0.0016500000000014836"
"586","0.007502222222223211","-5.7777777778353664E-5"
"587","0.0020539999999996893","-0.0016260000000002605"
"588","0.0074020000000032836","-4.339999999992017E-4"
"589","0.0036688888888873647","-0.003035555555554718"
"590","0.004728000000000776","0.005304000000000286"
"591","0.002177999999994995","-0.004732000000000625"
"592","0.005629999999994102","0.002690000000000007"
"593","0.008740000000000414","0.007795000000000218"
"594","0.023605625000000074","0.01505437499999851"
"595","0.020118333333332572","0.015751666666666015"
"596","0.020963928571428574","0.00938178571428556"
"597","0.021705384615380845","0.0133761538461544"
"598","0.024346250000007785","0.04228000000000076"
"599","0.007220000000003779","0.007519999999999527"
"600","0.01539571428571256","8.585714285708994E-4"
"601","0.004803428571427541","0.0017548571428572621"
"602","0.022705714285714457","0.002741428571426801"
"603","0.021411999999995147","0.012926000000000215"
"604","0.016580000000018913","0.02331999999999823"
"605","0.026633333333338765","0.031121666666666787"
"606","0.02298473684210179","0.017230000000000103"
"607","0.04305299999999903","0.025986500000000846"
"608","0.0329933333333301","-0.007410000000003691"
"609","0.013949999999994134","-0.0017700000000004934"
"610","0.01960333333333608","-0.01327666666666616"
"611","0.024836470588235047","-0.015388823529411825"
"612","0.02558857142857179","-0.022981904761904964"
"613","0.03111615384615478","-0.032679999999999425"
"614","0.01943061538461632","-0.024609384615384373"
"615","0.014908208955224054","-0.01681283582089544"
"616","0.01755053571428609","-0.01177785714285738"
"617","0.01365931034482813","-0.009878620689655082"
"618","0.008882333333333658","-0.011496499999999858"
"619","0.020991666666667037","-0.01746083333333252"
"620","0.0","0.0"
"621","0.0","0.0"
"622","0.020263913043481283","-0.017756521739130757"
"623","0.027022727272728406","-0.014577272727272828"
"624","0.027535454545456937","-0.013911818181818929"
"625","0.015479999999998975","-0.008972592592592919"
"626","0.02146166666666242","-0.015418333333334052"
"627","0.0263683333333334","-0.015257499999999998"
"628","0.020325454545453103","-0.01961000000000045"
"629","1.046081891891891","-0.1260908108108112"
"630","0.012010000000000668","-0.012875833333332901"
"631","0.009574444444445539","-0.009203333333331898"
"632","0.082709999999994","-0.07691666666666801"
"633","0.0077300000000040114","-0.004587500000000411"
"634","0.0","0.0"
"635","0.0","0.0"
"636","0.004405000000001991","-0.013595000000001356"
"637","0.006442499999998574","-0.007609999999999673"
"638","0.0348204545454539","-0.028289545454544974"
"639","0.00893421052631619","-0.00921210526315806"
"640","0.0","0.0"
"641","0.017493636363636513","-0.01497727272727254"
"642","0.017585714285715426","-0.010820000000000465"
"643","0.00811066666666657","-0.00669533333333329"
"644","0.0035600000000002296","-0.0019533333333339917"
"645","0.022878823529410397","-0.017079411764705472"
"646","0.028743333333333492","-0.027546666666666535"
"647","0.02313100000000361","-0.025391999999999727"
"648","0.14665857142857622","-0.018168571428570805"
"649","0.02234749999999508","-0.009624999999999773"
"650","0.013484999999993382","-0.01076666666666585"
"651","0.02548750000000055","-0.025254999999998695"
"652","0.006524999999996339","-0.012180000000002522"
"653","0.020010000000007317","-0.032112857142855944"
"654","0.03401666666666219","-0.034138888888889656"
"655","0.020887500000000614","-0.017111666666665453"
"656","0.014252500000001334","-0.017090000000001826"
"657","0.001480000000000814","-0.006809999999997984"
"658","0.0","0.0"
"659","0.01414074074074045","-0.018209629629629482"
"660","0.021369189189191874","-0.025872972972972783"
"661","0.013681282051280927","-0.014510256410256344"
"662","0.01328441860465083","-0.011711511627906786"
"663","0.019112884615385423","-0.019302499999999882"
"664","0.01331749999999866","-0.010616818181818033"
"665","0.008392500000000544","-0.010912500000000472"
"666","0.015399600000000646","-0.007807200000000165"
"667","0.016048648648649844","-0.016320270270270498"
"668","0.026910588235293093","-0.020909999999999606"
"669","0.013687307692307535","-0.01320423076923141"
"670","0.018403157894736472","-0.010174210526315244"
"671","0.01931125000000078","-0.01642750000000026"
"672","0.009402857142857712","-0.013917857142858077"
"673","0.018444761904762328","-0.011681904761904232"
"674","0.01315166666666655","-0.011502222222222377"
"675","0.01501054054054023","-0.009022702702702473"
"676","0.010756500000000457","-0.009720999999999869"
"677","0.006816470588236377","-0.008820588235294772"
"678","0.0066477777777799296","-0.012457777777777877"
"679","0.0077863636363624455","-0.008158181818182701"
"680","0.008826666666668833","-0.00442166666666625"
"681","0.004033333333332223","-0.007224999999998853"
"682","0.00332000000000221","-0.0026150000000022544"
"683","0.007379999999997722","-0.0024399999999999977"
"684","0.00774444444444337","-0.022724444444445484"
"685","0.009923749999998677","-0.015268750000000608"
"686","0.011027499999999968","-0.0037199999999999456"
"687","0.008251818181816811","-0.00749181818181813"
"688","0.011858333333331453","-0.019938333333334057"
"689","0.010368000000001132","-0.009169000000001048"
"690","0.0067599999999963245","-0.002922499999999495"
"691","0.00800999999999874","-0.009257499999999474"
"692","0.0031333333333283995","-0.010656666666669423"
"693","0.0043733333333311935","-0.006411666666666704"
"694","0.01324199999999962","-0.004942000000001201"
"695","0.007641428571421979","-0.013315714285713145"
"696","0.024134285714286614","-0.008888571428569898"
"697","0.005269999999995889","-0.0024924999999997866"
"698","0.00763111111110959","-0.013851111111111357"
"699","0.006139999999994927","-0.003878333333332762"
"700","0.011760000000005988","-0.008857499999997742"
"701","0.020663999999999304","-0.01525400000000019"
"702","0.0074749999999980336","-0.011241999999999308"
"703","0.009684999999997501","-0.011479999999999713"
"704","0.012898571428572885","-0.015892857142857406"
"705","0.004982666666667127","-0.006247999999999365"
"706","0.007625116279070531","-0.007920697674418496"
"707","0.007807777777777912","-0.009957979797979974"
"708","0.014828448275861024","-0.012551637931034696"
"709","0.01947151515151596","-0.015785000000000188"
"710","0.008393125000000409","-0.008287708333333477"
"711","0.012647307692306153","-0.01352576923076945"
"712","0.014013333333332937","-0.013546031746031926"
"713","0.015730000000000008","-0.01697172413793071"
"714","0.15771776119402964","-0.12547044776119434"
"715","0.013438000000000254","-0.009990666666666452"
"716","0.024215000000000587","-0.00755100000000084"
"717","0.013425952380951466","-0.012299523809523498"
"718","0.01793888888888886","-0.019311481481481593"
"719","0.011455833333332185","-0.0059583333333333615"
"720","0.008139499999999878","-0.011774000000000484"
"721","0.011654782608694347","-0.00958869565217421"
"722","0.011214761904763157","-0.014792380952381091"
"723","0.012616666666667697","-0.017140000000000554"
"724","0.008383999999998082","-0.008311000000000134"
"725","0.004012727272725866","-0.009514545454545371"
"726","0.014159999999998618","-0.008257500000000917"
"727","6.199999999978445E-4","-0.00537999999999883"
"728","0.004100000000001103","-0.0058700000000033725"
"729","0.007339999999995683","-0.004958333333330955"
"730","0.006274761904761035","-0.0027661904761897985"
"731","0.003593999999998232","-0.005728000000000577"
"732","0.012408571428571642","-0.009659999999999716"
"733","0.0029374999999998153","-0.006117500000001108"
"734","0.005399999999999652","-0.010303333333333478"
"735","0.007570588235295491","-0.006812941176471387"
"736","0.0069079999999999584","-0.006704000000000576"
"737","0.014020000000000366","-0.01992937500000047"
"738","0.005466666666665295","-0.006919999999999268"
"739","0.006146666666662526","-0.016150833333332375"
"740","0.015619374999999991","-0.011456875000000144"
"741","0.00948285714285646","-0.01709142857142914"
"742","0.008211666666667838","-0.012613333333334845"
"743","0.0","0.0"
"744","0.0011999999999972033","-3.5999999999702936E-4"
"745","0.01494499999999969","-0.02337333333333369"
"746","0.016224285714286118","-0.00872000000000003"
"747","0.01319333333333519","-0.010163333333333845"
"748","0.003368749999998144","-0.02255250000000153"
"749","0.022787368421056067","-0.028477368421052886"
"750","0.0035850000000010596","-0.00297500000000106"
"751","0.0075240000000007965","-0.02000000000000064"
"752","0.041600000000002524","-0.015580000000007033"
"753","0.008354912280701017","-0.010628947368421493"
"754","0.6093951408450712","-0.343564014084507"
"755","0.1299867204301071","-0.1280701075268816"
"756","0.412425543478262","-0.3100539130434779"
"757","0.01287771929824737","-0.013522982456140803"
"758","0.01159159292035369","-0.011087168141592971"
"759","0.011003442622951378","-0.01147442622950799"
"760","0.015605454545455555","-0.01978090909090942"
"761","0.010715000000000979","-0.026260909090909026"
"762","0.010885000000001366","-0.011174583333332619"
"763","0.013154871794871435","-0.009088974358974794"
"764","0.012322962962963166","-0.014027407407406375"
"765","0.008863076923073702","-0.01097384615384419"
"766","0.02082499999999727","-0.012627857142855905"
"767","0.011277333333334857","-0.019469333333334286"
"768","0.014007999999999753","-0.025730000000000076"
"769","0.01564249999999845","-0.010114166666667165"
"770","0.014370588235293018","-0.02369823529411974"
"771","0.013988461538463507","-0.01678769230769516"
"772","0.005720909090907934","-0.009756363636362474"
"773","0.006395384615385725","-0.0059507692307680425"
"774","0.00628789473684284","-0.008518421052630705"
"775","0.009427333333334786","-0.006327333333333722"
"776","0.0136490000000002","-0.01117099999999951"
"777","0.004073333333331893","-0.009966666666666532"
"778","0.0752855555555543","-0.012752222222225384"
"779","0.010944444444443806","-0.00548666666666738"
"780","0.00806999999999789","-0.00779200000000344"
"781","0.0068396153846159375","-0.007531538461538918"
"782","0.01968249999999827","-0.00925999999999938"
"783","0.016085000000002125","-0.011792499999999784"
"784","0.05285526315789057","-0.03160105263157912"
"785","0.020642105263158777","-0.017435789473684935"
"786","0.00685399999999845","-0.016150000000000376"
"787","0.024058571428574687","-0.004534285714285602"
"788","0.007052142857144109","-0.014659999999999482"
"789","0.004408717948716656","-0.00359641025640929"
"790","0.013098055555555987","-0.010522499999999942"
"791","0.023664999999998788","-0.008443333333336986"
"792","0.03129000000000796","-0.057666666666667275"
"793","0.013114666666666608","-0.00451200000000019"
"794","0.006835166666663639","-0.0067795000000003235"
"795","1.0361547058823566","-0.2235823529411764"
"796","0.00541500000000165","-0.007913333333336917"
"797","0.010562000000002314","-0.0076530000000008865"
"798","0.013111818181813688","-0.0053654545454545725"
"799","0.016262499999999847","-0.01010749999999927"
"800","0.06647609756097725","-0.1515154878048784"
"801","0.0061236363636365775","-0.009863999999999155"
"802","0.009971875000000907","-0.01837281249999978"
"803","0.012969733333333587","-0.01710559999999911"
"804","0.009776428571427284","-0.00982130952380952"
"805","0.00980051724137933","-0.012294827586206604"
"806","0.013630476190475513","-0.020798412698412105"
"807","0.011307906976742875","-0.015060930232557723"
"808","0.012280909090909892","-0.015842272727271286"
"809","0.008677999999998794","-0.009524666666667752"
"810","0.010575714285714863","-0.00806714285714451"
"811","0.008874642857141981","-0.009945357142856588"
"812","0.007094800000000703","-0.010426800000000468"
"813","0.006261785714285547","-0.004777857142855169"
"814","0.008020000000000494","-0.009020000000000295"
"815","0.017833500000001834","-0.025577499999999986"
"816","0.020793333333333493","-0.024149523809523794"
"817","0.02034760000000034","-0.016876800000000004"
"818","0.009613333333332955","-0.012560833333334168"
"819","0.007848181818181517","-0.008552272727273385"
"820","0.014472307692305283","-0.010415384615383844"
"821","0.006314736842104794","-0.010141052631579845"
"822","0.008631764705881588","-0.009246470588236544"
"823","0.005479230769230215","-0.005306923076924127"
"824","0.006923000000000101","-0.006882999999999484"
"825","0.007744615384615154","-0.006217692307691673"
"826","0.006096666666665997","-0.006513888888889202"
"827","0.006294999999998956","-0.006341428571428054"
"828","0.008187272727274769","-0.004644090909091922"
"829","0.006800714285714398","-0.012349999999998371"
"830","0.004449999999998511","-0.0036700000000031707"
"831","0.006816153846159523","-0.01321538461538661"
"832","0.013561764705882825","-0.007854705882354636"
"833","0.01117074074074009","-0.008777777777778373"
"834","0.0","0.0"
"835","0.022783636363638105","-0.025902272727272677"
"836","0.013606851851850753","-0.011537222222222103"
"837","0.007515490196078756","-0.005803725490196283"
"838","0.0","0.0"
"839","0.025464999999999093","-0.029296000000000433"
"840","0.00887666666666944","-0.01008111111110934"
"841","0.5608036000000014","-0.38500560000000134"
"842","0.00738749999999655","-0.006103750000002073"
"843","0.008275000000001854","-0.004516999999999882"
"844","0.00670375000000097","-0.0041437500000010745"
"845","0.005829999999993636","-0.015658333333333257"
"846","0.010487499999992878","-0.006392500000002244"
"847","0.02029000000000375","-0.006999999999999673"
"848","0.005372142857141525","-0.007585714285715132"
"849","0.006151643835616959","-0.006673013698630046"
"850","0.01056552083333274","-0.011124895833333573"
"851","0.015461803278688326","-0.01901918032786805"
"852","0.01785795454545471","-0.01564204545454489"
"853","0.010793333333332046","-0.011193030303030625"
"854","0.007505833333334778","-0.009773055555556139"
"855","0.013298684210526409","-0.017735263157893474"
"856","0.008619999999999451","-0.010077666666667777"
"857","0.010516363636363575","-0.009259999999999219"
"858","0.011825588235293338","-0.011656764705882531"
"859","0.005755581395349808","-0.00703139534883747"
"860","0.0047534782608687895","-0.007121739130435176"
"861","0.0035022727272728815","-0.005378181818182332"
"862","0.007052666666667306","-0.009357333333333884"
"863","0.014048823529410517","-0.014097647058824403"
"864","0.0044116666666660365","-0.0053733333333336"
"865","0.017651250000001895","-0.012702499999999617"
"866","0.007625263157894767","-0.00782684210526285"
"867","0.0068210714285711505","-0.009098928571429101"
"868","0.008729999999999396","-0.009015000000000535"
"869","0.008427499999997146","-0.011599999999998722"
"870","0.003203333333334039","-0.007561111111109476"
"871","0.007520000000004264","-0.010871666666665428"
"872","0.010067142857142894","-0.006791428571431319"
"873","0.005630000000001546","-0.005154285714284461"
"874","0.004695714285715675","-0.00768000000000159"
"875","0.012717142857142047","-0.013232857142856094"
"876","0.009001999999995292","-0.004635999999999285"
"877","0.0037496153846162247","-0.005224230769231534"
"878","0.18020214285714228","-0.17334410714285722"
"879","0.014831666666668278","-0.009393333333334771"
"880","0.015997500000003956","-0.007333333333333118"
"881","0.017056399999996186","-0.013127599999999405"
"882","0.016713809523806623","-0.02331000000000047"
"883","0.01433499999999981","-0.00880199999999931"
"884","0.009817142857142715","-0.018519999999999266"
"885","0.012167142857139521","-0.012001428571430495"
"886","0.03571285714285669","-0.05213571428571332"
"887","0.016704666666669254","-0.015239999999999535"
"888","0.05052999999999486","-0.057510000000000616"
"889","0.0035331249999970282","-0.00458187500000129"
"890","0.002529999999993038","-0.005900000000004013"
"891","0.0042400000000068555","-0.002943333333334408"
"892","0.3187410714285675","-0.18245339285714277"
"893","0.0","0.0"
"894","0.020773999999999893","-0.02394400000000161"
"895","0.015467857142851895","-0.011101428571428531"
"896","0.006392666666666654","-0.006143333333334529"
"897","0.007184520547945412","-0.006018219178082849"
"898","0.009408679245282802","-0.008961132075471768"
"899","0.006628769230767955","-0.009576769230769108"
"900","0.00984082352941206","-0.009148823529412198"
"901","0.009766666666665754","-0.0076546666666663064"
"902","0.008234347826088789","-0.006662173913044742"
"903","0.01127173913043315","-0.01273826086956491"
"904","0.008546500000000633","-0.008866500000001309"
"905","0.007819666666667165","-0.010370666666665803"
"906","0.009458461538463653","-0.009553846153844657"
"907","0.004189999999996275","-0.010323999999999955"
"908","0.006078333333333852","-0.007842499999998864"
"909","0.009322499999996126","-0.0033024999999966553"
"910","0.003264999999998963","-0.006157499999998706"
"911","0.010181904761904345","-0.007013333333334447"
"912","0.008172142857143072","-0.00890214285714259"
"913","0.00793857142857118","-0.007777142857144492"
"914","0.008994999999998754","-0.0039030000000011"
"915","0.002879999999997551","-0.013393333333335514"
"916","0.010012500000001978","-0.011315000000005071"
"917","0.002989999999999308","-0.008341666666665285"
"918","0.00504444444444611","-0.008348888888887827"
"919","0.006444000000000472","-0.006154000000002213"
"920","0.010980000000000312","-0.004708181818181536"
"921","0.005713333333334347","-0.0054358333333321225"
"922","0.02039714285714313","-0.017460000000000826"
"923","0.007565199999999947","-0.006522000000001356"
"924","0.0072277777777769205","-0.008947777777777333"
"925","0.003921333333335042","-0.004910000000001465"
"926","0.018603333333332358","-0.011668148148148271"
"927","0.014646666666673505","-0.01554333333333228"
"928","0.013694999999998458","-0.014520000000000977"
"929","0.017612499999998477","-0.013386249999997268"
"930","0.006402499999992983","-0.015727500000002337"
"931","0.011710833333337925","-0.02490000000000118"
"932","0.011825172413791479","-0.012966896551724005"
"933","0.018222857142856493","-0.011298571428572046"
"934","0.011984999999995694","-0.006797499999997569"
"935","0.0","0.0"
"936","0.0","0.0"
"937","0.00741199999999651","-0.006620000000002335"
"938","6.400000000184036E-4","-0.002009999999998513"
"939","0.0","0.0"
"940","0.005852083333333321","-0.0053995833333345305"
"941","0.04147333333333333","-0.02953333333333319"
"942","0.006508125000000697","-0.00844937499999876"
"943","0.011619999999997077","-0.018547500000000383"
"944","0.04230000000000013","-0.023758571428571833"
"945","0.011208000000000417","-0.014320000000000022"
"946","0.011106562499998696","-0.014905312500001155"
"947","0.013502500000000714","-0.009972916666665851"
"948","0.016206923076922636","-0.018656923076922665"
"949","0.007116999999998264","-0.005855999999998929"
"950","0.006568124999999814","-0.005117500000000774"
"951","0.00964222222222371","-0.005066666666666306"
"952","0.006170370370369675","-0.014857037037036176"
"953","0.009744999999999797","-0.01070000000000044"
"954","0.0178850000000003","-0.009788333333334029"
"955","0.007086923076922875","-0.00934846153846208"
"956","0.011280000000002132","-0.006459999999999866"
"957","0.010795999999997719","-0.004349999999998033"
"958","0.007688333333333396","-0.018883888888888676"
"959","0.007649999999998158","-0.02054499999999937"
"960","0.01614125000000044","-0.009978750000001035"
"961","0.004748000000002151","-0.0018060000000019727"
"962","0.007696250000000404","-0.004678750000000065"
"963","0.00369583333333523","-0.0064100000000001005"
"964","0.008466666666668251","-0.007919999999996227"
"965","0.004150000000002763","-0.01790999999999343"
"966","0.004783999999999367","-0.013377999999997314"
"967","1.2195323999999985","-0.24596280000000065"
"968","0.002036000000001081","-0.007099999999999796"
"969","0.009025714285714668","-0.012178571428569691"
"970","0.009036923076924754","-0.010792307692309048"
"971","0.007710833333335998","-0.009735000000000937"
"972","0.006942000000006487","-0.00450999999999766"
"973","0.011436363636362174","-0.007486363636362822"
"974","0.00956416666666963","-0.020455000000000705"
"975","0.020940000000000698","-0.014121999999999938"
"976","0.012234999999996887","-0.01817833333333378"
"977","0.008053333333322144","-0.012710000000000813"
"978","0.050539999999990926","-0.022880000000000678"
"979","0.011548214285714462","-0.011445000000001164"
"980","0.010315200000002847","-0.01614400000000046"
"981","0.010025000000005946","-0.02342000000000155"
"982","0.004860000000007858","-0.04818999999999818"
"983","0.0","0.0"
"984","0.0","0.0"
"985","0.011411428571431006","-0.011162857142855793"
"986","0.0","0.0"
"987","0.010470000000000004","-0.014017777777777636"
"988","0.007722857142857016","-0.014911428571430463"
"989","0.00496250000000095","-0.005509545454546163"
"990","0.006235714285714218","-0.012477142857146564"
"991","0.011442000000002395","-0.026995999999999753"
"992","0.023620000000004637","-0.02279500000000212"
"993","0.02039800000000085","-0.027646000000000014"
"994","0.016531249999998554","-0.015093125000000818"
"995","0.017028461538461288","-0.02103538461538462"
"996","0.018501111111110982","-0.0080955555555554"
"997","0.015220999999999662","-0.016440000000000055"
"998","0.01793333333333101","-0.022906666666668702"
"999","0.010343333333334334","-0.011666666666667899"
"1000","0.01169066666666699","-0.013656666666665747"
"1001","0.007419999999996854","-0.012132727272729162"
"1002","0.011591111111114414","-0.010793333333333679"
"1003","0.014451764705881734","-0.015079411764707833"
"1004","0.008092142857144324","-0.011664285714285683"
"1005","0.005950000000000598","-0.0069685714285715305"
"1006","0.006786000000001025","-0.00588600000000099"
"1007","0.011130909090907566","-0.011635454545454267"
"1008","0.007382500000000292","-0.007314999999998406"
"1009","0.013100000000001444","-0.0071000000000012164"
"1010","0.005369999999999209","-0.007210000000000605"
"1011","0.005049999999998296","-0.007899999999999352"
"1012","0.006604545454546373","-0.00528545454545211"
"1013","0.008621666666667712","-0.006618333333334429"
"1014","0.009178571428571607","-0.009568571428572576"
"1015","0.006819999999999382","-0.010855000000000281"
"1016","0.0038499999999928036","-0.0036499999999932697"
"1017","0.006133333333328513","-0.008043333333335548"
"1018","0.011182857142857066","-0.020515000000002153"
"1019","0.006678666666662991","-0.007219333333335006"
"1020","0.011531818181817305","-0.00661181818181624"
"1021","0.008365555555555047","-0.012847407407407361"
"1022","0.013837333333332444","-0.010626666666666059"
"1023","0.006842499999997642","-0.009652499999997843"
"1024","0.013793846153841006","-0.0166884615384635"
"1025","0.010688181818177999","-0.00761909090909153"
"1026","0.007481999999998834","-0.007343999999999795"
"1027","0.005396666666669603","-0.014993333333334155"
"1028","0.0038299999999971135","-0.015172500000002032"
"1029","0.0029400000000094906","-0.015199999999992997"
"1030","0.005851666666668365","-0.008439999999999634"
"1031","0.008020000000001914","-0.0017149999999972465"
"1032","0.009129000000000076","-0.013019999999999499"
"1033","0.0","0.0"
"1034","1.0501558333333332","-1.0434479166666666"
"1035","0.008926666666666777","-0.00854291666666788"
"1036","0.018216250000000045","-0.009937499999999488"
"1037","0.038764999999999716","-0.009337500000000887"
"1038","0.0","0.0"
"1039","0.014007999999998333","-0.029107999999999377"
"1040","0.0","0.0"
"1041","0.01927899999999756","-0.04401799999999909"
"1042","0.01305499999999545","-0.03054666666666724"
"1043","0.017705000000001636","-0.011099999999999"
"1044","0.0038266666666710116","-0.009678333333331087"
"1045","0.008039999999994052","-0.011097999999999785"
"1046","0.010427000000001385","-0.006698000000000093"
"1047","0.024870000000004923","-0.009875999999998442"
"1048","0.00768363636363777","-0.010049090909090291"
"1049","0.038069999999998494","-0.007072500000003146"
"1050","0.011683333333334526","-0.009973333333334722"
"1051","0.011025833333334845","-0.016979166666664252"
"1052","0.00791375000000194","-0.0121999999999991"
"1053","0.0072972727272726115","-0.008563636363634492"
"1054","0.013038181818183664","-0.01397727272727358"
"1055","0.011738571428573152","-0.020084285714282096"
"1056","0.014098571428571103","-0.011752857142859341"
"1057","0.004306249999999068","-0.006037499999997031"
"1058","0.00345999999999691","-0.003920000000000812"
"1059","0.0026900000000011914","-0.011550000000006833"
"1060","0.0051399999999901524","-7.0999999999799E-4"
"1061","0.004252500000001547","-0.006052499999999128"
"1062","0.008851111111110773","-0.008605555555553066"
"1063","0.005609999999999415","-0.008402307692306338"
"1064","0.006422000000000594","-0.007684000000001134"
"1065","0.0049459999999986815","-0.005973333333333623"
"1066","0.00657500000000409","-0.009601428571428474"
"1067","0.009925000000000987","-0.007748076923077791"
"1068","0.020319047619045433","-0.014187142857142902"
"1069","0.02542499999999759","-0.014275000000000926"
"1070","0.04258545454545464","-0.034596363636363876"
"1071","0.01095000000000075","-0.012570000000001127"
"1072","0.005985000000009677","-0.0076650000000029195"
"1073","0.006527500000004238","-0.004645000000001787"
"1074","0.003674999999996942","-0.007386999999997102"
"1075","0.006220000000004689","-0.006394000000001654"
"1076","9.450000000050807E-4","-0.006415000000000504"
"1077","0.004014999999998992","-0.00958500000000484"
"1078","6.999999999948159E-4","-0.013679999999993697"
"1079","0.0021650000000050795","-0.005984999999995466"
"1080","0.0","0.0"
"1081","0.0","0.0"
"1082","0.0","0.0"
"1083","0.03851999999999995","-0.027020909090909647"
"1084","0.021504999999999885","-0.026980000000000597"
"1085","0.0","0.0"
"1086","0.019513333333340672","-0.009939999999997914"
"1087","0.021960000000007085","-0.011399999999994748"
"1088","0.014772222222223123","-0.02887555555555663"
"1089","0.010397777777777308","-0.014886666666667972"
"1090","0.006454000000003646","-0.012055999999996913"
"1091","0.0","0.0"
"1092","0.0","0.0"
"1093","0.03669999999999618","-0.008380000000002497"
"1094","0.0","0.0"
"1095","0.0","0.0"
"1096","0.02272500000000477","-0.031639999999999446"
"1097","0.0465666666666659","-0.004430000000001637"
"1098","0.00440999999999292","-6.800000000026785E-4"
"1099","0.01067571428571463","-0.00588571428571275"
"1100","0.00258500000000339","-0.004075000000007378"
"1101","0.006472000000002254","-0.0026700000000033698"
"1102","0.00742666666666499","-0.008565000000000822"
"1103","0.007890000000005651","-0.006203333333331784"
"1104","0.0047719999999984","-0.005508000000003221"
"1105","0.005200769230768287","-0.006282307692308437"
"1106","0.007553750000002246","-0.005766250000000639"
"1107","0.00951545454545572","-0.006810909090909625"
"1108","0.0032887500000002845","-0.009717499999998047"
"1109","0.0064833333333336185","-0.006434166666666741"
"1110","0.003930408163265071","-0.0041887755102030565"
"1111","0.002671399999999693","-0.003364599999999598"
"1112","0.0040375000000016925","-0.006223750000001971"
"1113","0.021527500000004807","-0.03788500000000017"
"1114","0.0050912499999995475","-0.007493750000000965"
"1115","0.00239083333333312","-0.004624166666665393"
"1116","0.006772000000002265","-0.005218999999999596"
"1117","0.009711538461537281","-0.008777692307692594"
"1118","0.006370000000005562","-0.00827777777777625"
"1119","0.005179333333333602","-0.009143333333332275"
"1120","0.010538571428571888","-0.010382142857142387"
"1121","0.009427142857140731","-0.011805714285713975"
"1122","0.006424285714288658","-0.013261428571432532"
"1123","0.0025650000000041473","-0.0032999999999994145"
"1124","0.004935000000010348","-0.004301666666664279"
"1125","0.004215000000009184","-0.00280000000000058"
"1126","0.004775714285709601","-0.003591428571425581"
"1127","0.0","0.0"
"1128","0.0","0.0"
"1129","0.0","0.0"
"1130","0.010279999999998957","-0.008540000000003545"
"1131","0.022039999999999713","-0.03411444444444337"
"1132","0.003929999999999545","-0.01071999999999207"
"1133","0.0","0.0"
"1134","0.00944250000000224","-0.01122250000000058"
"1135","0.008075000000012267","-0.004810000000006198"
"1136","0.013145555555551327","-0.004398888888886177"
"1137","0.007735357142857399","-0.008177499999998363"
"1138","0.01130875000000131","-0.008069374999999379"
"1139","0.00574333333333558","-0.004663333333330873"
"1140","0.0022600000000032594","-0.0072300000000034"
"1141","0.0035399999999984493","-0.006277142857143758"
"1142","0.0027700000000017155","-0.014380000000002724"
"1143","0.006169999999999713","-0.0031433333333363103"
"1144","0.010549999999994952","-0.004240000000002908"
"1145","0.006169999999997344","-0.004660000000001219"
"1146","0.003179999999996852","-0.003824999999999079"
"1147","0.0073400000000063415","-0.007799999999996032"
"1148","0.0","0.0"
"1149","0.0","0.0"
"1150","0.0","0.0"
"1151","0.0","0.0"
"1152","0.0","0.0"
"1153","0.0","0.0"
"1154","8.999999999943498E-4","-0.0034700000000071896"
"1155","0.0015466666666625883","-0.005663333333330911"
"1156","0.0020899999999983267","-0.0035260000000008063"
"1157","0.003212500000001839","-0.004855000000000942"
"1158","0.0060040000000029185","-0.002904000000000906"
"1159","0.005209999999999937","-0.007464999999999833"
"1160","0.006275000000011133","-0.008762500000003115"
"1161","0.005632272727272503","-0.005201363636363254"
"1162","0.005904117647057874","-0.0049688235294102785"
"1163","0.005552000000005819","-0.019752000000001147"
"1164","0.031200499999998736","-0.24247366666666786"
"1165","0.0028664285714309506","-0.0045964285714299126"
"1166","0.00641153846153814","-0.008529230769227616"
"1167","0.0032100000000004534","-0.0071583333333341175"
"1168","0.004461999999999478","-0.004583000000000226"
"1169","0.00940000000000083","-0.008831999999998175"
"1170","0.003451999999998634","-0.004755333333334022"
"1171","0.0035967692307674673","-0.004161384615384542"
"1172","0.002805633802816567","-0.0027150704225353535"
"1173","0.002797857142857719","-0.002787619047618235"
"1174","5.957142857125421E-4","-0.002941428571430395"
