"cell_id","acc_x","acc_y"
"0","0.0","0.0"
"1","0.0","0.0"
"2","0.0","0.0"
"3","0.0","0.0"
"4","0.0","0.0"
"5","0.011553333333334118","0.01899999999999998"
"6","0.0032319512195134927","0.0048551219512195124"
"7","0.0","0.0"
"8","0.010970714285717926","0.005161428571428575"
"9","0.010487857142862822","0.010274285714285717"
"10","0.02439749999999208","0.02552000000000007"
"11","0.0","0.0"
"12","0.0","0.0"
"13","0.0","0.0"
"14","0.0","0.0"
"15","0.0","0.0"
"16","0.0","0.0"
"17","0.0","0.0"
"18","0.0","0.0"
"19","0.0","0.0"
"20","0.0","0.0"
"21","0.0","0.0"
"22","0.0012700000000052114","0.011179999999999746"
"23","0.0022850000000040893","0.011114999999999986"
"24","0.002214999999999634","0.0065549999999999775"
"25","0.009789999999998855","0.004724999999999979"
"26","0.0035350000000029524","0.011932500000000068"
"27","0.0041279999999986215","0.007297999999999938"
"28","0.0063579999999987535","0.00786599999999984"
"29","0.0040700000000010545","0.008875000000000003"
"30","0.013927272727270628","0.009751818181818169"
"31","0.009475833333335496","0.01605583333333327"
"32","0.010949230769232744","0.017310000000000013"
"33","0.010161874999998766","0.016518750000000023"
"34","0.012512500000005033","0.01750625000000003"
"35","0.012214999999997644","0.00886250000000004"
"36","0.1001633333333337","0.021444444444444467"
"37","0.021432222222222838","0.019414444444444425"
"38","0.00613377358490518","0.00858094339622643"
"39","0.008342800000003195","0.014548799999999987"
"40","0.006293846153844549","0.008110769230769206"
"41","0.00500685714285599","0.005999428571428579"
"42","0.012876799999999093","0.015330800000000018"
"43","0.007633653846152828","0.009801346153846164"
"44","0.008069912280702184","0.008048771929824543"
"45","0.013323947368419908","0.009288684210526327"
"46","0.0014200000000101909","0.003255000000000119"
"47","0.0","0.0"
"48","0.0","0.0"
"49","0.0013399999999847978","0.0010899999999995913"
"50","0.004933333333331309","0.009704444444444417"
"51","0.009334285714284565","0.011204285714285714"
"52","0.004539999999998656","0.01898500000000003"
"53","0.0","0.0"
"54","0.0","0.0"
"55","0.004390000000000782","0.009280000000000177"
"56","0.008245999999999754","0.00786199999999999"
"57","0.0","0.0"
"58","0.01050333333333242","0.019119999999999877"
"59","0.0","0.0"
"60","0.007047142857144552","0.008357142857142856"
"61","0.022069999999999368","0.0027399999999997426"
"62","0.0","0.0"
"63","0.009645000000002568","0.008199999999999985"
"64","0.0","0.0"
"65","0.00757199999999898","0.006414000000000008"
"66","0.006707499999997424","0.0061075000000002655"
"67","0.012344999999999384","0.004946250000000013"
"68","0.011495000000000033","0.0043950000000000005"
"69","0.007466923076923247","0.008430769230769294"
"70","0.00545333333333215","0.008898888888888963"
"71","0.008353000000000322","0.014582999999999968"
"72","0.006266428571427595","0.011714285714285693"
"73","0.007288000000000494","0.007720000000000038"
"74","0.007955833333332643","0.01818833333333329"
"75","0.008044999999996527","0.020752500000000007"
"76","0.011952222222222511","0.02686111111111093"
"77","0.013480999999998744","0.011849000000000064"
"78","0.016475000000001218","0.019396999999999977"
"79","0.008671666666670555","0.006215000000000155"
"80","0.013574444444444111","0.020778888888889173"
"81","0.009934210526317225","0.019635789473684134"
"82","0.012475833333333242","0.017868750000000017"
"83","0.00885300000000413","0.016243000000000028"
"84","0.011467857142855666","0.018421428571428606"
"85","0.015353255813952167","0.019731860465116255"
"86","0.011551621621623208","0.009284054054054048"
"87","0.013350000000001251","0.015038292682926831"
"88","0.006602258064517737","0.008375161290322564"
"89","0.007978999999998848","0.011074833333333403"
"90","0.00861314814814649","0.012688148148148157"
"91","0.00429356321839046","0.005863850574712645"
"92","0.010141190476191685","0.012924761904761979"
"93","0.0","0.0"
"94","0.0","0.0"
"95","0.0","0.0"
"96","0.0","0.0"
"97","0.005196666666666516","0.005262500000000207"
"98","0.0","0.0"
"99","0.014436666666669021","0.010046666666666612"
"100","0.006600000000007711","0.012795000000000112"
"101","0.010429999999992981","0.0010399999999994118"
"102","1.4999999999076863E-4","0.0014899999999995472"
"103","0.004006666666673671","0.006929999999999954"
"104","0.007807142857143187","0.009955714285714543"
"105","0.010517999999999006","0.028307999999999823"
"106","0.012071428571429368","0.015912857142857284"
"107","0.0","0.0"
"108","0.005832500000000351","0.003737499999999949"
"109","0.013937142857143061","0.010165000000000075"
"110","0.005995769230769345","0.005529230769230919"
"111","0.007430000000002427","0.007545714285713981"
"112","0.014041249999998229","0.004826250000000143"
"113","0.012174999999999159","0.008989999999999831"
"114","0.0023049999999997794","0.007759999999999767"
"115","0.005936666666666923","0.0053066666666666444"
"116","0.0014033333333311286","0.006179999999999926"
"117","0.005338571428570812","0.00951285714285748"
"118","0.006483333333330658","0.010300000000000567"
"119","0.0","0.0"
"120","0.005066666666669069","0.009483333333333732"
"121","0.014294999999998836","0.012822499999999515"
"122","0.012735000000001051","0.0187075000000001"
"123","0.005534285714284286","0.008542857142857027"
"124","0.006849999999997891","0.008377999999999997"
"125","0.012811111111112043","0.016442777777777903"
"126","0.011312999999998397","0.015951999999999654"
"127","0.0108961904761911","0.022198095238095128"
"128","0.015765714285717332","0.021732857142857092"
"129","0.018008275862069826","0.018262068965517343"
"130","0.019601081081082217","0.017494054054054062"
"131","0.016235000000000593","0.01335708333333339"
"132","0.01133888888888845","0.01439333333333315"
"133","0.010448846153846713","0.011488846153846318"
"134","0.007638846153846784","0.019368461538461636"
"135","0.009836774193547535","0.010434516129032328"
"136","0.0076528571428521475","0.02190142857142861"
"137","0.014656896551720667","0.019834827586206888"
"138","0.01341481481481434","0.01569407407407414"
"139","0.010420714285714386","0.018188571428571332"
"140","0.0","0.0"
"141","0.008772000000001867","0.00816699999999999"
"142","0.004020000000011237","4.5999999999857266E-4"
"143","0.011483750000001791","0.024638749999999987"
"144","0.011499999999999844","0.021705000000000085"
"145","0.017084999999998463","0.012344999999999384"
"146","0.009970000000000034","0.004160000000000164"
"147","0.0","0.0"
"148","2.0500000000023277E-4","0.0029449999999999754"
"149","0.023534285714285477","0.00776071428571428"
"150","0.01090250000000026","0.006196250000000014"
"151","0.013460000000001237","0.008507777777777411"
"152","0.0030674999999948938","0.01833499999999999"
"153","0.009365999999995012","0.006048000000000542"
"154","0.014153750000000187","0.013570625000000003"
"155","0.005847916666665102","0.007335416666666632"
"156","0.009301666666668021","0.011723333333333382"
"157","0.007096153846154115","0.0057976923076922"
"158","0.012051249999999847","0.006186249999999838"
"159","0.006133888888888587","0.00918999999999971"
"160","0.005730909090909816","0.006123636363636512"
"161","0.006131000000000597","0.004343999999999948"
"162","0.009377272727274611","0.0072063636363635716"
"163","0.006195000000002615","0.009644999999999793"
"164","0.0037283333333325195","0.006549999999999982"
"165","0.01082500000000124","0.008627999999999946"
"166","0.006672000000000367","0.00829399999999989"
"167","0.006557499999998366","0.011196666666666669"
"168","0.007596666666665068","0.007321666666666449"
"169","0.008378124999999681","0.008665624999999899"
"170","0.4285159999999998","0.12323599999999964"
"171","0.008731818181818663","0.00976272727272716"
"172","0.008272499999997684","0.007331874999999599"
"173","0.0193242307692301","0.01629923076923073"
"174","0.011675555555558029","0.01972277777777788"
"175","0.08725347222222041","0.03095069444444444"
"176","0.01609725000000033","0.015137749999999905"
"177","0.019278095238096933","0.02001857142857157"
"178","0.020900454545452165","0.03237545454545437"
"179","0.014981111111107262","0.014168888888889045"
"180","0.004039999999998045","0.014008750000000125"
"181","0.006384999999994534","0.011690000000000422"
"182","0.006390714285713679","0.019129285714285578"
"183","0.012965000000004778","0.02702812500000007"
"184","0.003020000000001725","0.015443333333333106"
"185","0.02013812499999812","0.016350624999999952"
"186","0.015362352941176697","0.011314999999999978"
"187","0.012304999999990685","0.009735000000000493"
"188","0.01213600000000099","0.006473999999999928"
"189","0.0","0.0"
"190","0.013942857142859668","0.013720000000000556"
"191","0.002911224489795278","0.005100612244898195"
"192","0.005131666666667201","0.008445000000000183"
"193","0.008909473684208686","0.0065668421052635225"
"194","0.004904571428572676","0.004925714285714225"
"195","0.007355862068966725","0.010516896551723958"
"196","0.012529545454544756","0.006049090909091458"
"197","0.3810982499999994","0.05956074999999985"
"198","0.011861200000000452","0.006133200000000017"
"199","0.011831388888889805","0.007500555555556016"
"200","0.01906333333333447","0.01084333333333302"
"201","0.2588705263157892","0.13762710526315808"
"202","0.011397499999997285","0.012970625000000346"
"203","0.016857142857142144","0.01644428571428604"
"204","0.00984166666666475","0.008371666666667407"
"205","0.014508333333330606","0.010034999999999942"
"206","0.005253571428571239","0.004676428571428153"
"207","0.012582307692308784","0.004945384615384322"
"208","0.008528571428571345","0.01083142857142873"
"209","0.006784444444443396","0.009957777777777387"
"210","0.0014400000000023283","0.004509999999998904"
"211","0.004851666666668327","0.009791666666666051"
"212","0.0038833333333331646","0.0024600000000007207"
"213","0.005144999999997957","0.006552499999999517"
"214","0.006809999999999168","0.007876666666665718"
"215","0.004761111111110476","0.00470222222222204"
"216","0.00480866666666581","0.00614800000000025"
"217","0.009256000000001308","0.006786000000000225"
"218","0.008144999999998959","0.011952499999999588"
"219","0.01182399999999859","0.011900799999999698"
"220","0.02041133333333344","0.01781866666666687"
"221","0.01699500000000178","0.018795500000000277"
"222","0.00849123966942218","0.009013388429752047"
"223","0.013464347826086964","0.017458260869565013"
"224","0.013234666666668697","0.013098666666666798"
"225","0.08441666666665526","0.05957000000000109"
"226","0.012377500000003039","0.00988249999999935"
"227","0.002216666666669198","0.005156666666666254"
"228","0.03370999999999924","0.03235250000000023"
"229","0.015438333333330926","0.028498333333333587"
"230","0.0055799999999806005","0.06018000000000079"
"231","0.0034352777777782884","0.00609777777777756"
"232","0.012120000000008346","0.022458749999999972"
"233","0.01805239999999685","0.019114799999999762"
"234","0.0027890000000041935","0.0052030000000000244"
"235","0.027346666666668778","0.01393000000000022"
"236","0.02904666666666067","0.022103333333333215"
"237","0.015313333333333512","0.009110000000000618"
"238","0.0027117999999995844","0.004059800000000102"
"239","0.0030734883720903135","0.004017441860465379"
"240","0.010248924731182347","0.008271505376344234"
"241","0.009185208333333805","0.011542083333333583"
"242","0.009741935483871757","0.007655483870967756"
"243","0.007651481481482709","0.006466111111111127"
"244","0.007778958333334011","0.0082306249999999"
"245","0.006993157894735559","0.00994342105263145"
"246","0.007788749999998457","0.008347499999999897"
"247","0.00442076923076863","0.003155538461538699"
"248","1.1031662068965513","0.6513103448275864"
"249","0.009868333333332776","0.00921500000000064"
"250","0.008712999999999482","0.0039979999999998125"
"251","0.013227777777777346","0.007839444444444609"
"252","0.007299000000001854","0.005318000000000112"
"253","0.0032500000000024918","0.0037516666666670417"
"254","0.004056666666663489","0.004781666666666832"
"255","0.00621624999999959","0.010359999999999703"
"256","0.00468400000000031","0.007789999999999964"
"257","0.005686470588236733","0.0048541176470586495"
"258","0.006194999999999358","0.003921666666666527"
"259","0.009079999999998733","0.004508000000000223"
"260","0.011131666666663875","0.007358333333332763"
"261","0.004290833333334021","0.003465833333333279"
"262","0.0053050000000016695","0.008110000000000284"
"263","0.007789999999992858","0.007114999999998872"
"264","0.005189999999998918","0.017692500000000333"
"265","0.024006538461538714","0.02254692307692318"
"266","0.015227352941177314","0.02008823529411759"
"267","0.013487727272728088","0.016882272727272607"
"268","0.01607466666666492","0.011897333333333293"
"269","0.01113872340425512","0.01578510638297886"
"270","0.018471428571428663","0.011472857142857168"
"271","0.019938235294116632","0.021331176470588825"
"272","0.01586142857143053","0.01859142857142818"
"273","0.0096160000000026","0.011469999999999914"
"274","0.008377500000001703","0.012924999999999187"
"275","0.02470833333333407","0.03938333333333303"
"276","0.0016200000000026193","0.007949999999997459"
"277","0.016351666666674685","0.010791666666666089"
"278","0.009101874999998927","0.010323124999999767"
"279","0.01835000000000342","0.015848124999999658"
"280","0.022137499999994148","0.0191975000000002"
"281","0.006143750000002335","0.00814249999999972"
"282","0.0","0.0"
"283","0.08517000000000063","0.005210000000001713"
"284","0.0","0.0"
"285","0.005291666666664597","0.00800833333333332"
"286","0.0077643396226424275","0.012884716981132017"
"287","0.01074255813953527","0.008955813953488361"
"288","0.0078285714285712","0.008569285714285486"
"289","0.005989999999999233","0.005271818181818281"
"290","0.007455121951219936","0.006346341463414618"
"291","0.006990344827586429","0.0072572413793106924"
"292","0.012505263157892332","0.012216842105263257"
"293","0.00870870967741869","0.00665161290322589"
"294","0.028544857142858048","0.03223285714285699"
"295","0.006578611111112526","0.004087777777778011"
"296","0.012976315789475322","0.030211052631578826"
"297","0.005985789473685163","0.007323157894736622"
"298","0.009216874999999014","0.007051249999999731"
"299","0.007648888888888273","0.00735500000000005"
"300","0.008246153846152664","0.005649999999999813"
"301","0.012076250000001565","0.0021174999999999944"
"302","0.0","0.0"
"303","0.004020999999999475","0.006214999999999726"
"304","0.012544285714285357","0.005761428571429202"
"305","0.005269999999999442","0.004475000000000229"
"306","0.005727499999998997","0.0033724999999993344"
"307","0.0088628571428576","0.009212857142856785"
"308","0.015695000000000903","0.002234999999999765"
"309","0.013556666666667402","0.013487500000000244"
"310","0.010792142857141584","0.014240714285714036"
"311","0.006978888888891138","0.007353333333333446"
"312","0.011619999999999936","0.013696097560975066"
"313","0.0069699999999990325","0.011061818181818466"
"314","0.02128600000000233","0.019014800000000064"
"315","0.010497999999998342","0.010604999999999799"
"316","0.012823333333333013","0.007687777777777861"
"317","0.009595217391307025","0.014625217391304353"
"318","0.015242727272727373","0.017213636363636455"
"319","0.01272199999999657","0.007082000000000477"
"320","0.011937142857141632","0.021184285714285624"
"321","0.02311000000001684","0.03736999999999746"
"322","0.0024099999999975807","0.008080000000000531"
"323","6.400000000041928E-4","0.0016899999999990811"
"324","9.099999999904185E-4","0.007120000000002236"
"325","0.015324285714281618","0.03703000000000044"
"326","0.012693636363637366","0.019199999999999984"
"327","0.040455384615386746","0.027264615384615408"
"328","0.00978928571428485","0.014170714285714401"
"329","0.013090000000000046","0.008689999999999642"
"330","0.04652000000000225","0.04746800000000064"
"331","0.12084391304348024","0.5428865217391307"
"332","0.0053718644067792505","0.00933067796610147"
"333","0.04085175925926014","0.05586750000000006"
"334","0.00617726190476111","0.004523214285714296"
"335","0.05774446808510708","0.031441063829787334"
"336","0.006663846153845436","0.00701333333333314"
"337","0.009047777777778087","0.00960583333333329"
"338","0.0029929999999964707","0.0044690000000001005"
"339","0.006614285714282987","0.015257142857142065"
"340","0.0","0.0"
"341","0.026569166666666828","0.021878333333333444"
"342","0.007471999999997436","0.0064460000000007515"
"343","0.00824999999999773","0.007647272727272442"
"344","0.009613333333333666","0.00730533333333329"
"345","0.005901538461538591","0.005451538461538273"
"346","0.00265999999999759","0.004006666666666862"
"347","0.010160000000001427","0.005643333333332852"
"348","0.005087000000002462","0.004825999999999553"
"349","0.006729999999999829","0.010688333333333707"
"350","0.005569047619047075","0.005211904761904711"
"351","0.005189999999998128","0.0036133333333333204"
"352","0.004462857142857705","0.005818571428571165"
"353","0.003396000000002175","0.00506200000000021"
"354","0.008545000000000394","0.007036666666666432"
"355","0.004615714285713628","0.007194285714286153"
"356","0.014567777777776946","0.008332222222222383"
"357","0.0021020000000007144","0.005898000000000181"
"358","0.014134545454544551","0.008426818181817937"
"359","0.014024545454545163","0.01459090909090916"
"360","0.12777461538461365","0.5226903846153848"
"361","0.014743333333332368","0.012779166666666045"
"362","0.018879090909088993","0.02039272727272716"
"363","0.02153523809523893","0.01844666666666668"
"364","0.013210000000000832","0.01420999999999939"
"365","0.01373666666666414","0.007639999999999721"
"366","0.04738888888888937","0.04100888888888873"
"367","0.03274833333333523","0.016876666666666946"
"368","0.02638000000000318","0.09637000000000207"
"369","0.00489250000000041","0.014767500000000489"
"370","0.008377692307688606","0.0065846153846154795"
"371","0.018894285714286037","0.017311428571428592"
"372","0.020210000000005834","0.025049999999999645"
"373","0.010083999999999094","0.011499999999999488"
"374","0.04306000000000173","0.05646999999999913"
"375","0.020560000000003242","0.027612499999999596"
"376","0.006906666666671946","0.01630999999999953"
"377","0.019371428571429705","0.020708571428571836"
"378","0.008456538461538333","0.009130384615385009"
"379","0.006904574468085955","0.008058191489361849"
"380","0.012226428571428626","0.011476285714285517"
"381","0.03394550000000014","0.007353083333333154"
"382","0.09475700636942648","0.07226649681528645"
"383","0.013371500000000447","0.013221749999999765"
"384","0.010776842105262424","0.00992631578947383"
"385","0.003942195121952317","0.003917560975609447"
"386","0.07189680851063934","0.03726659574468105"
"387","0.007395192307693007","0.005540769230768705"
"388","0.006251764705881409","0.005485294117646709"
"389","0.010566842105262333","0.015844210526316186"
"390","0.023052727272727225","0.008252727272727483"
"391","0.009209999999995944","0.005191999999998842"
"392","0.014054666666665602","0.01385466666666666"
"393","0.022934000000001238","0.006075333333332722"
"394","0.009771111111110682","0.005143333333332044"
"395","0.010853749999999884","0.011819999999998831"
"396","0.003920000000000812","0.007595555555555775"
"397","0.006653750000000791","0.004476249999999293"
"398","0.004322857142857929","0.00656571428571492"
"399","0.006245833333331656","0.009036666666665619"
"400","0.006620555555554198","0.0052033333333333254"
"401","0.007690666666668259","0.005072666666666118"
"402","7.299999999972329E-4","0.005380000000002383"
"403","0.019871999999998023","0.005929999999999325"
"404","0.019699999999998496","0.0042925000000004765"
"405","0.015622500000001427","0.06641312500000018"
"406","0.017731142857142654","0.015620571428570835"
"407","0.386155714285714","0.6488187755102044"
"408","0.036539705882353835","0.04440323529411812"
"409","0.02154090909091105","0.017718181818181543"
"410","0.024125000000001506","0.008774999999999089"
"411","0.022514285714283995","0.00881857142857001"
"412","0.0655800000000113","0.019789999999996866"
"413","0.005213333333333736","0.004712500000000415"
"414","0.03099249999999998","0.02560749999999956"
"415","0.012945000000001983","0.01438750000000133"
"416","0.009475000000001899","0.0043250000000014666"
"417","0.010193333333338236","0.017430000000000945"
"418","0.1297948275862063","0.3219003448275857"
"419","0.007541500000001378","0.006025000000000525"
"420","0.021806000000000835","0.0338959999999993"
"421","0.01555250000000008","0.014337500000000336"
"422","0.00656000000000212","0.017044999999999977"
"423","0.022552666666665763","0.011192666666666658"
"424","0.019086000000001137","0.004909999999999926"
"425","0.010394444444449234","0.01817333333333278"
"426","0.011961041666666228","0.011467708333333585"
"427","0.011467540983607484","0.00925409836065537"
"428","0.00922074074074062","0.010462592592593486"
"429","0.007325000000001454","0.01140714285714368"
"430","0.00888222222222347","0.0075333333333331455"
"431","0.02280499999999659","0.017953499999999956"
"432","0.018973333333333762","0.008195666666666787"
"433","0.011532173913043571","0.006129999999999786"
"434","0.008167600000000733","0.00898840000000007"
"435","0.0039041666666636368","0.010533749999999564"
"436","0.007667857142856782","0.010697500000000661"
"437","0.06469642857142814","0.39579214285714315"
"438","0.00950500000000054","0.006774374999999555"
"439","0.027876000000001254","0.008348000000000156"
"440","0.02082333333333608","0.011158333333333085"
"441","0.005681666666665326","0.004241666666667143"
"442","0.0046091666666683295","0.006083333333332774"
"443","0.008162000000000091","0.005861999999999768"
"444","0.005185000000002067","0.001915000000000333"
"445","0.006563333333337103","0.005680000000001684"
"446","0.005861999999999057","0.006300000000000949"
"447","0.0044033333333312425","0.005943333333332153"
"448","0.00539100000000019","0.0034719999999989425"
"449","0.0048080000000013","0.006227999999998938"
"450","0.0067755555555556336","0.011022222222222192"
"451","0.013615555555558798","0.020104444444444407"
"452","0.012680416666666675","0.0255108333333333"
"453","0.009561034482757446","0.013261034482758623"
"454","0.015908421052631787","0.020140526315789897"
"455","0.0296584210526305","0.02466368421052622"
"456","0.032597500000002576","0.02664166666666586"
"457","0.030777142857145025","0.016648571428569476"
"458","0.019268000000003838","0.03441499999999955"
"459","0.013285555555553528","0.012803333333332981"
"460","0.028934999999997046","0.02546000000000248"
"461","0.0","0.0"
"462","0.0","0.0"
"463","0.0094562499999995","0.013539999999999885"
"464","0.01588333333332533","0.04706999999999795"
"465","0.03267000000000166","0.017581999999998744"
"466","0.017807999999999425","0.01174000000000035"
"467","0.03599571428571226","0.033134285714285436"
"468","0.03904250000000786","0.016197499999999643"
"469","0.02331999999999823","0.03360499999999966"
"470","0.013637142857142575","0.012325714285714759"
"471","0.015820000000000344","0.013828000000000173"
"472","0.019459199999998445","0.03733279999999994"
"473","0.011093023255812618","0.011088372093023687"
"474","0.009881290322579912","0.008234838709676931"
"475","0.00740705882352893","0.008507058823529605"
"476","0.01098214285714175","0.0061585714285709815"
"477","0.03885000000000094","0.02309571428571441"
"478","0.016568571428568442","0.01792857142856974"
"479","0.01349499999999928","0.006677999999999784"
"480","0.0","0.0"
"481","0.012771666666666626","0.021828333333333266"
"482","0.006602857142858909","0.017087142857144095"
"483","0.009314999999999348","0.017752692307692105"
"484","0.0099010526315779","0.0060257894736834615"
"485","0.051189999999999715","0.0017780000000001905"
"486","0.004661250000000061","0.005799375000000051"
"487","0.0045708333333334865","0.00762416666666758"
"488","0.003332499999998184","0.00423375000000048"
"489","0.004123749999997983","0.007592500000001223"
"490","0.006248333333334226","0.004580000000000102"
"491","0.007374000000004344","0.0032119999999999037"
"492","0.00623499999999666","0.00262999999999991"
"493","0.0","0.0"
"494","0.016009999999999042","0.005186666666666895"
"495","0.008859999999998536","0.0054885714285707165"
"496","0.0044333333333348435","0.012606666666666063"
"497","0.005228888888891466","0.00793555555555593"
"498","0.01207899999999853","0.014902999999999977"
"499","0.014858999999999156","0.021024000000000244"
"500","0.008783846153846206","0.012365384615385448"
"501","0.018799000000002054","0.019207999999999004"
"502","0.015173333333346287","0.017630000000002848"
"503","0.023369999999995155","0.02876333333333155"
"504","0.0378522222222257","0.026364444444444263"
"505","0.017671999999997468","0.025084000000000373"
"506","0.033826249999998836","0.03167437500000014"
"507","0.03134999999998911","0.011249999999996874"
"508","0.01890999999999963","0.017220000000000367"
"509","0.0","0.0"
"510","0.0115425000000009","0.015077500000001187"
"511","0.011713749999998413","0.021041250000000122"
"512","0.032049999999998136","0.03837000000000046"
"513","0.01067999999999536","0.02287624999999993"
"514","0.06310999999999467","0.08207999999999771"
"515","0.04928090909091054","0.024592727272727707"
"516","0.022709999999992903","0.03724250000000229"
"517","0.04760000000000986","0.06971000000000238"
"518","0.0096750000000001","0.0058650000000017855"
"519","0.014184999999999837","0.014140625000000018"
"520","0.012918571428571722","0.013421142857142802"
"521","0.007209285714286854","0.007990000000000006"
"522","0.00980666666666797","0.010051333333333901"
"523","0.011300526315789296","0.010693684210526112"
"524","0.008675384615383445","0.007929999999999309"
"525","0.007982857142861479","0.005184285714285863"
"526","0.006735555555554779","0.010300000000000075"
"527","0.008843125000004726","0.014375000000000693"
"528","0.006584999999998065","0.003994999999999749"
"529","0.009555333333333494","0.015384666666666883"
"530","0.00591800000000049","0.005896000000001322"
"531","0.011515000000001644","0.010946111111111398"
"532","0.002994888888889038","0.004478000000000214"
"533","0.004373157894736766","0.004782105263157857"
"534","0.006617142857143067","0.0059171428571436835"
"535","0.007028888888890429","0.004324444444444551"
"536","0.005153636363636658","0.004408181818182235"
"537","0.0066675000000007145","0.007025000000000503"
"538","0.008479999999995158","0.0032200000000006668"
"539","0.008459999999999468","0.007879999999996556"
"540","0.010784999999999675","0.011845000000000402"
"541","0.004372857142855529","0.010212857142856737"
"542","0.005800000000004957","0.008924000000000376"
"543","0.7383253846153843","0.2186248717948719"
"544","0.011280000000000305","0.013594285714284686"
"545","0.011827575757575957","0.019455454545454495"
"546","0.009306896551724866","0.013158275862069184"
"547","0.013430322580645101","0.015211612903226271"
"548","0.007510714285712895","0.020337142857143626"
"549","0.00859333333333249","0.02030499999999987"
"550","0.007634285714287005","0.004714285714286908"
"551","0.012423333333335526","0.014813333333332679"
"552","0.027929999999988315","0.02508666666666907"
"553","0.013082857142852131","0.013688571428571399"
"554","0.016813636363639004","0.014346363636362465"
"555","0.01995250000000226","0.009319999999998885"
"556","0.012235000000001151","0.027086000000000256"
"557","0.007069999999984589","0.0019100000000022987"
"558","0.016286666666668264","0.03111333333333377"
"559","0.032891249999995154","0.03666374999999977"
"560","0.051428888888889586","0.041984444444444255"
"561","0.019510000000000683","0.049074545454544705"
"562","0.04426000000000075","0.033659999999999766"
"563","0.005828571428570025","0.0041485714285712"
"564","0.03566199999999733","-0.0019640000000002546"
"565","0.23531266666666775","0.4152166666666661"
"566","0.03751133333333486","0.011369999999999198"
"567","0.018992368421052955","-0.0032750000000000804"
"568","0.018263030303032547","-0.0033600000000001576"
"569","0.06777175438596653","0.27507403508771905"
"570","0.017113333333332172","0.008549333333333445"
"571","0.0037100000000007682","0.012180000000000746"
"572","0.009127142857142698","-0.0035178571428571915"
"573","0.012346086956521295","-7.782608695635581E-5"
"574","0.010570666666663916","-0.0026246666666665417"
"575","0.017477999999999837","0.005772000000001753"
"576","0.008295000000000385","-0.013777499999999776"
"577","0.010021333333333379","3.3933333333303987E-4"
"578","0.004072391304347426","-0.0016023913043471732"
"579","0.006004561403508141","-0.002878596491228292"
"580","0.012201904761905016","-0.009859523809524939"
"581","0.011982941176471898","-0.01189764705882368"
"582","0.002616666666668266","4.8500000000117893E-4"
"583","0.004788888888889176","0.004882222222222133"
"584","0.01171076923077025","-0.00564999999999954"
"585","0.0049515384615376615","0.002184615384616032"
"586","0.003343333333329923","-3.108333333325201E-4"
"587","0.005365384615384545","2.9999999999902755E-4"
"588","0.0035128571428566196","0.00556571428571319"
"589","0.0032833333333298262","0.006631666666664889"
"590","0.011215555555554127","0.008784444444444657"
"591","0.02693124999999963","-1.8875000000040387E-4"
"592","0.01277666666666614","0.007417500000000743"
"593","0.009009999999999336","-5.111764705881097E-4"
"594","0.00935125000000081","0.0011537499999993983"
"595","0.008868124999998006","0.009924999999999962"
"596","0.0666611764705866","-0.0068611764705884615"
"597","0.014111666666664746","-4.908333333325151E-4"
"598","0.009080588235289944","-0.013181176470587651"
"599","0.011865294117647389","0.005004117647058718"
"600","0.019500869565219334","-0.011005217391304155"
"601","0.15891687969924764","-0.027495187969924877"
"602","0.030174444444439372","-0.0078622222222234"
"603","0.0","0.0"
"604","0.0013099999999894862","-0.007130000000000081"
"605","0.04604999999997972","0.10248999999999953"
"606","0.07618599999999845","0.03480600000000038"
"607","0.044565909090911245","-0.014423181818181615"
"608","0.029603333333326987","0.0018333333333337976"
"609","0.026209999999996587","-0.022309999999999757"
"610","0.03564857142857696","0.025361428571427678"
"611","0.03172714285714251","-0.008600000000000258"
"612","0.007174000000000546","-0.005323999999998818"
"613","0.02180476190476256","-0.026787619047619313"
"614","0.023965087719298374","-0.02157578947368465"
"615","0.028611875000000286","-0.012525937500000195"
"616","0.01410033333333492","-0.010615333333333154"
"617","0.012147058823526598","-0.008394117647059532"
"618","0.011735714285714087","-0.0146557142857152"
"619","0.008564210526317109","-0.00733052631579019"
"620","0.01601136363636241","-0.007791363636364194"
"621","0.027828947368421734","-0.011800526315789628"
"622","0.010415714285718636","-0.005785000000000754"
"623","0.02117833333333093","-0.022295000000000325"
"624","0.009250000000003014","-0.007767500000001111"
"625","0.006241190476191554","-0.007396190476190292"
"626","0.007389999999999627","-0.006823928571427678"
"627","0.0067130434782609796","-0.006862608695651874"
"628","0.00521857142857028","-0.0056700000000010475"
"629","0.00831375000000012","-0.007617500000000721"
"630","0.009047999999997103","-0.009547999999999845"
"631","0.012587647058822845","-0.014893529411764708"
"632","0.004368571428570485","-0.005948571428572588"
"633","0.008917999999998472","-0.0077866666666660455"
"634","0.014944000000001267","-0.005237999999999942"
"635","0.00416833333333481","-0.005238333333334566"
"636","0.007599999999998867","-0.006282666666666614"
"637","0.010851000000002387","-0.006194000000000699"
"638","0.005510000000002435","-0.0062360000000012406"
"639","0.009433076923078086","-0.009268461538461965"
"640","0.007661874999999263","-0.005377500000000257"
"641","0.009623478260869473","-0.007184347826087451"
"642","0.012601538461538006","-0.012967692307691382"
"643","0.030384999999995443","-0.02524000000000015"
"644","0.013213333333337119","-0.020758000000000245"
"645","0.0025800000000089085","-5.20000000005183E-4"
"646","0.009452499999987651","-0.0074000000000014055"
"647","0.008818888888888586","-0.034368888888889636"
"648","0.023704285714284117","-0.030985714285713124"
"649","0.0069316666666641895","-0.0072400000000000615"
"650","0.007185714285713273","-0.0190714285714298"
"651","0.022307999999998173","-0.01237199999999845"
"652","0.0","0.0"
"653","0.033326666666670945","-0.022825833333334284"
"654","0.01677125000000146","-0.028094999999999537"
"655","0.01936714285714101","-0.045404285714286834"
"656","0.008263333333336694","-0.014263333333332184"
"657","0.0014299999999991542","-2.300000000001745E-4"
"658","0.0","0.0"
"659","0.012900769230769283","-0.0060984615384613175"
"660","0.015070416666665254","-0.018408541666666906"
"661","0.018508666666667454","-0.020731333333334115"
"662","0.01908222222222184","-0.023402222222221842"
"663","0.010902972972973862","-0.01062540540540576"
"664","0.013134871794871645","-0.010765897435897514"
"665","0.011165555555557403","-0.011305925925925683"
"666","0.008917254901961262","-0.006840784313725513"
"667","0.022943000000000602","-0.019052999999999896"
"668","0.015016250000003062","-0.014248750000000587"
"669","0.022031666666670446","-0.013745833333332827"
"670","0.010414736842102718","-0.011618947368421161"
"671","0.009439999999997895","-0.005615238095237494"
"672","0.009804999999998584","-0.006722500000000113"
"673","0.008714999999999907","-0.005093636363636426"
"674","0.00983249999999991","-0.015051249999999294"
"675","0.0066933333333309974","-0.007913333333333364"
"676","0.009549999999998704","-0.006030000000000276"
"677","0.007772142857142735","-0.009555000000000393"
"678","0.014255624999998773","-0.015224374999999846"
"679","0.01221400000000159","-0.007993999999999345"
"680","0.0073287500000027705","-0.008306250000000404"
"681","0.005712222222221897","-0.0068866666666664855"
"682","0.006365000000000028","-0.0066883333333335555"
"683","0.005093000000000103","-0.0057879999999997265"
"684","0.0012400000000027944","-0.0022400000000040166"
"685","0.03915555555555746","-0.134808888888889"
"686","0.009066206896552255","-0.009422758620689918"
"687","0.011450000000000083","-0.009911034482758284"
"688","0.037668260869565054","-0.256582173913043"
"689","0.009926999999999709","-0.006764000000000081"
"690","0.011851538461537157","-0.009140769230770528"
"691","0.011195454545455423","-0.022670909090909287"
"692","0.008253333333326415","-0.008559999999999826"
"693","0.006200000000006867","-0.011179999999995971"
"694","0.15787999999999158","-0.017140000000004818"
"695","0.034909999999996444","-0.014136249999999517"
"696","0.011169999999994826","-0.006777142857142593"
"697","0.02587899999999621","-0.0292819999999999"
"698","0.019354999999997347","-0.015998333333334596"
"699","0.03455428571428091","-0.055888571428572016"
"700","0.025140000000002754","-0.009053333333332839"
"701","0.11511999999999034","-0.10479999999999734"
"702","0.00619599999999707","-0.02119999999999962"
"703","1.0000000017384991E-5","-9.999999999621423E-6"
"704","0.0","0.0"
"705","0.01779416666666565","-0.016082916666666797"
"706","0.003349999999999742","-0.0015099999999996783"
"707","0.015433030303031193","-0.05253181818181843"
"708","0.017583846153845988","-0.022498076923078123"
"709","0.013030344827585878","-0.012536206896552216"
"710","0.009628421052630847","-0.011991315789473907"
"711","0.006642708333335505","-0.006753541666667011"
"712","0.012158800000000908","-0.013500400000000355"
"713","0.012793749999999493","-0.012032499999999446"
"714","0.02126458333333403","-0.01811666666666656"
"715","0.013019600000003066","-0.012186399999999651"
"716","0.19087473684210662","-0.09193052631578964"
"717","0.008499999999999824","-0.011211052631578605"
"718","0.011830333333331685","-0.007709999999999676"
"719","0.07205088888888905","-0.05791266666666609"
"720","0.0045768749999988145","-0.0058075000000004096"
"721","0.5460433333333328","-0.11044696969696943"
"722","0.005966896551723414","-0.009045172413792959"
"723","0.006084736842106209","-0.006170526315789229"
"724","0.006429999999999343","-0.01083388888888908"
"725","0.0025700000000004053","-0.004006250000000211"
"726","0.010895555555557558","-0.004985555555555503"
"727","0.003668333333334791","-0.005699999999998558"
"728","0.009814999999999685","-0.013102499999998685"
"729","0.00792999999999782","-0.0070677777777766616"
"730","0.018400000000006855","-0.011400000000001853"
"731","0.005820000000003489","-0.006665000000001697"
"732","0.0012088461538447986","-0.0029357692307689066"
"733","0.006762222222222015","-0.006227777777779646"
"734","0.005327499999996377","-0.014537500000000314"
"735","0.008275714285714133","-0.006636428571428813"
"736","0.011194090909091353","-0.010180454545454444"
"737","0.015597894736840982","-0.014117368421053518"
"738","0.019093333333336834","-0.017944444444444468"
"739","0.018693333333331452","-0.02488000000000194"
"740","0.07728500000000338","-0.03422749999999919"
"741","0.0207900000000123","-0.03087000000000195"
"742","0.006514090909090245","-0.00844136363636381"
"743","0.0","0.0"
"744","0.0023133333333286523","-0.005663333333334464"
"745","0.008472222222217675","-0.016043333333333878"
"746","0.003729999999990241","-0.009060000000001622"
"747","0.0577949999999916","-0.032989999999998076"
"748","0.006454999999998989","-0.031072499999999614"
"749","0.013729999999998514","-0.00960333333333294"
"750","0.003565000000008922","-0.00800999999999874"
"751","0.0","0.0"
"752","0.0143850000000003","-0.007626249999999057"
"753","0.01572666666666663","-0.009453333333331907"
"754","0.005017333333334229","-0.00941033333333176"
"755","0.009640303030300744","-0.012301212121212369"
"756","0.00995086419753136","-0.009778518518519037"
"757","0.06975861386138596","-0.04910752475247552"
"758","0.019383835616438357","-0.21276602739726017"
"759","0.013339302325582208","-0.007836976744185223"
"760","0.008621034482759343","-0.010404022988505858"
"761","0.01096911764705839","-0.00880970588235265"
"762","0.00832189655172424","-0.010268448275862412"
"763","0.01009653846154047","-0.013763846153845832"
"764","0.00814382352941129","-0.008708823529412053"
"765","0.008176363636362968","-0.014032424242424084"
"766","0.00604029411764597","-0.007470588235294993"
"767","0.00513258064516135","-0.0072438709677420604"
"768","0.0072174999999985445","-0.009686250000000562"
"769","0.005726666666668952","-0.008789999999998225"
"770","0.007517499999999622","-0.006098750000001374"
"771","0.008209999999999695","-0.006670999999997917"
"772","0.015481249999999669","-0.011718749999999556"
"773","0.009892500000000304","-0.009712500000001345"
"774","0.0073200000000007825","-0.009140000000000568"
"775","0.008514545454545441","-0.01186545454545428"
"776","0.007112499999999855","-0.005777499999997104"
"777","0.008169999999999789","-0.007420000000003313"
"778","0.030374999999995822","-0.01893999999999707"
"779","0.011765000000001654","-0.015493333333331805"
"780","0.003119999999999631","-0.005012857142856676"
"781","0.0","0.0"
"782","0.0024652083333333388","-0.003045624999999571"
"783","0.006538333333331536","-0.010231666666665973"
"784","0.01691399999999845","-0.013285000000000834"
"785","0.00782199999999591","-0.02627400000000222"
"786","0.006965000000000998","-0.009714999999992813"
"787","0.0","0.0"
"788","0.021734999999999616","-0.004789999999998962"
"789","0.026120000000005916","-0.0291300000000021"
"790","0.0073509090909117895","-0.005073636363636457"
"791","0.025853333333339872","-0.014530000000000598"
"792","0.01471499999999537","-0.004144999999997623"
"793","0.023329999999995722","-0.03620600000000067"
"794","0.012880909090908816","-0.007860909090907985"
"795","0.003535000000000821","-0.00606899999999797"
"796","0.008143888888891442","-0.013999444444445786"
"797","0.007955849056604363","-0.11412754716981148"
"798","0.01384333333332203","-0.01072666666666322"
"799","0.020416000000000167","-0.010272000000000503"
"800","0.013695999999999087","-0.016807999999999622"
"801","0.006566666666667777","-0.010904444444443741"
"802","0.006876981132076082","-0.006083773584906738"
"803","0.007485692307693858","-0.009150000000000073"
"804","0.007867672413793035","-0.007717500000000105"
"805","0.006387411764705591","-0.0060335294117651265"
"806","0.009952386363636238","-0.021108636363636277"
"807","0.011050128205127976","-0.00996076923076982"
"808","0.01169896551724151","-0.012167126436781127"
"809","0.017341860465116057","-0.016437674418605407"
"810","0.010580322580644695","-0.010379032258063877"
"811","0.011073750000000349","-0.008829000000000597"
"812","0.00458981818181999","-0.005088181818181749"
"813","0.006555555555556293","-0.009183968253967776"
"814","0.009099999999999664","-0.008483000000000018"
"815","0.013191666666669969","-0.008784166666664225"
"816","0.003444000000000358","-0.0036060000000020407"
"817","0.009745999999995546","-0.006409999999999627"
"818","0.007975499999999514","-0.006763000000000829"
"819","0.0036455555555537306","-0.005570000000000321"
"820","0.010968800000000271","-0.006129999999999996"
"821","0.00990166666666544","-0.008041666666667169"
"822","0.011290000000002465","-0.005355000000001553"
"823","0.009189999999991963","-0.016340000000004313"
"824","0.01298399999999873","-0.00566999999999922"
"825","0.0074166666666641845","-0.007823333333334404"
"826","0.003967499999998125","-0.0061024999999990115"
"827","0.015456666666672447","-0.004199999999999686"
"828","0.00646533333333205","-0.008801333333333142"
"829","0.009840833333332336","-0.011442499999999948"
"830","0.007257142857148275","-0.0077842857142858945"
"831","0.010121428571433657","-0.012368571428572141"
"832","0.024327272727272874","-0.013447272727273297"
"833","0.009599999999998153","-0.006948888888886352"
"834","0.028019999999997935","-0.00344000000000122"
"835","0.019472500000002668","-0.016274999999999668"
"836","0.022673333333329992","-0.03661999999999921"
"837","0.003966666666670449","-0.010566666666669278"
"838","0.015139000000001346","-0.010100000000002041"
"839","0.007741111111108189","-0.005323333333331941"
"840","0.012836249999999438","-0.00788000000000011"
"841","0.013753333333334913","-0.036483333333334755"
"842","0.005294054054053353","-0.009998918918918699"
"843","0.9790915000000041","-0.5038464999999984"
"844","7.357142857123174E-4","-6.100000000017758E-4"
"845","0.006129999999991753","-0.02657499999999402"
"846","0.02666499999999772","-0.008483750000001677"
"847","0.022687500000003524","-0.011122500000004365"
"848","0.01153999999999902","-0.01073555555555572"
"849","0.007599230769230645","-0.009076923076922965"
"850","0.011578405797101208","-0.013006956521739875"
"851","0.0064680582524278005","-0.010613495145630928"
"852","0.005942954545455196","-0.00679287878787882"
"853","0.010059999999999859","-0.008326170212765126"
"854","0.009426545454545925","-0.007248000000000394"
"855","0.009195070422536273","-0.009219859154929752"
"856","0.012374770642202835","-0.014527064220183674"
"857","0.8940685964912278","-0.1487359649122807"
"858","0.01011777777777875","-0.013844888888888976"
"859","0.011486323529410506","-0.009264117647058256"
"860","0.01091117647058916","-0.012118235294118433"
"861","0.007425454545455553","-0.0060027272727273965"
"862","0.010966428571428821","-0.005895714285713893"
"863","0.00576000000000132","-0.006076249999999561"
"864","0.005765000000000242","-0.007374999999999687"
"865","0.005015999999999821","-0.00829700000000031"
"866","0.008159090909092403","-0.0075609090909061006"
"867","0.013658333333334364","-0.004821666666664726"
"868","0.005631111111108724","-0.004627777777777453"
"869","0.006078333333335924","-0.009111666666666926"
"870","0.006037999999998078","-0.006047999999999831"
"871","0.0","0.0"
"872","0.006030000000002644","-0.002933333333335971"
"873","0.002740000000000483","-0.004716666666664556"
"874","0.010750000000001592","-0.004690000000003636"
"875","0.0041821428571436415","-0.005427142857143455"
"876","0.00390285714285522","-0.004274285714285294"
"877","0.014947499999998115","-0.010787499999999284"
"878","0.0","0.0"
"879","0.5717497560975605","-0.13739048780487803"
"880","0.015269999999996741","-0.009233000000000402"
"881","0.02792666666665866","-0.02438666666666715"
"882","0.03199833333332928","-0.012975000000002032"
"883","0.011710000000003143","-0.0038533333333414057"
"884","0.010013333333333208","-0.02875666666666395"
"885","0.007192000000001997","-0.012830999999999903"
"886","0.020947999999998503","-0.01228399999999823"
"887","0.02913090909090825","-0.02013272727272925"
"888","0.011904999999998722","-0.013805999999999586"
"889","0.010399999999997868","-0.014520000000001372"
"890","0.0","0.0"
"891","0.0068166666666703195","-0.013320000000002588"
"892","0.0022799999999989495","-0.0051500000000075374"
"893","0.0","0.0"
"894","0.0","0.0"
"895","0.008702051282051197","-0.007246923076923741"
"896","0.006619824561404033","-0.007717719298245447"
"897","0.005876417910446436","-0.005042537313432988"
"898","0.009041571428570474","-0.008388999999998857"
"899","0.0065316438356153","-0.006333013698629973"
"900","0.006157647058824476","-0.008610980392156884"
"901","0.006554482758621548","-0.009406379310344179"
"902","0.007261666666665414","-0.008655000000000967"
"903","0.010347666666665962","-0.013106222222222482"
"904","0.008983142857142974","-0.010410428571429061"
"905","0.0","0.0"
"906","0.008437096774193653","-0.008665161290321388"
"907","0.010303076923077671","-0.00685461538461414"
"908","0.020361666666668537","-0.009836666666662571"
"909","0.007755833333332518","-0.005507499999999628"
"910","0.005078999999999922","-0.007004000000001298"
"911","0.0050822222222224565","-0.006879444444445524"
"912","0.005331666666667327","-0.0039058333333349773"
"913","0.0044674999999996245","-0.005584999999998175"
"914","0.0050483333333358376","-0.011026666666666074"
"915","0.010999999999999233","-0.004829999999996559"
"916","0.00795749999999984","-0.011715000000002362"
"917","0.002280000000006055","-0.015190000000004034"
"918","0.002909999999998547","-0.006821999999996819"
"919","0.008650000000000565","-0.00512166666666521"
"920","0.005742500000000206","-0.002744999999997333"
"921","0.009365714285713977","-0.0032928571428527675"
"922","0.017397499999997734","-0.012987500000001262"
"923","0.006108666666668702","-0.004003999999999526"
"924","0.007556249999999487","-0.0064487500000023346"
"925","0.006206666666656702","-0.005986666666663846"
"926","0.008494117647062434","-0.008409411764705594"
"927","0.01919333333333384","-0.019056666666667846"
"928","0.018808888888884212","-0.01640777777778229"
"929","0.015161999999999409","-0.01737500000000125"
"930","0.015485238095241102","-0.022898095238095568"
"931","0.00787374999999102","-0.013903749999998105"
"932","0.027350000000005537","-0.041492499999996824"
"933","0.018493333333315338","-0.006263333333336618"
"934","0.0176400000000001","-0.03134000000000725"
"935","0.006644999999998902","-0.018168000000002137"
"936","0.010563571428569674","-0.014567142857142557"
"937","0.012252857142856653","-0.01755285714285293"
"938","0.001720000000005939","-0.022840000000009297"
"939","0.004270000000005325","-0.002600000000001046"
"940","0.0","0.0"
"941","0.0","0.0"
"942","0.01645428571429048","-0.021491428571427003"
"943","0.007468888888887439","-0.013167222222222504"
"944","0.009964210526317305","-0.013174912280702045"
"945","0.013405294117645879","-0.008648823529412234"
"946","0.008784761904761471","-0.010990714285714123"
"947","0.009216060606061003","-0.010617878787878706"
"948","0.008212894736839803","-0.0072189473684203835"
"949","0.010584166666666204","-0.01103571428571445"
"950","0.011681142857143305","-0.013090857142856903"
"951","0.009777555555555435","-0.007879777777777184"
"952","0.012448260869565075","-0.01519739130434741"
"953","0.012222222222223737","-0.010932222222221653"
"954","0.009560000000001642","-0.009270666666666708"
"955","0.01050272727272789","-0.009111818181817843"
"956","0.011635714285711276","-0.016891428571430618"
"957","0.01389124999999769","-0.013512500000001815"
"958","0.006914374999999584","-0.0069412499999979005"
"959","0.006723076923077651","-0.006324615384615894"
"960","0.007016666666663933","-0.008876666666665164"
"961","0.0044287500000006474","-0.006152499999998895"
"962","0.008488888888888053","-0.008034444444445418"
"963","0.00667749999999856","-0.006051250000000508"
"964","0.00634999999999865","-0.00867428571428519"
"965","0.005530000000002033","-0.008152500000000451"
"966","0.006966250000000507","-0.004613750000000749"
"967","0.005374999999999612","-0.003863333333335106"
"968","0.001130000000003406","-0.007880000000007215"
"969","0.008646249999999966","-0.005838749999998782"
"970","0.004869090909090671","-0.008990909090911069"
"971","0.016807142857143527","-0.007534285714285716"
"972","0.002478888888892546","-0.007955555555556751"
"973","0.010880000000000223","-0.012489999999999668"
"974","0.018208749999997664","-0.012316249999999584"
"975","0.02014142857143903","-0.018589999999999156"
"976","0.0138816666666699","-0.00766250000000035"
"977","0.010120624999998995","-0.017946875000000695"
"978","0.011838823529412052","-0.01517588235294031"
"979","0.020874999999996646","-0.014982500000000343"
"980","0.010709999999996","-0.0032899999999962404"
"981","0.013800000000017576","-3.300000000052705E-4"
"982","0.006241250000003973","-0.007288749999999844"
"983","0.017594999999985816","-0.03014999999999901"
"984","0.0572770000000015","-0.1211536666666665"
"985","0.009406666666668192","-0.009159999999996652"
"986","0.00830000000001263","-0.028235000000005783"
"987","0.0","0.0"
"988","0.0","0.0"
"989","0.03432500000000438","-0.02037499999999781"
"990","0.01192941176470415","-0.015727647058823093"
"991","0.010338750000000618","-0.01398000000000188"
"992","0.009778181818182413","-0.019137272727270727"
"993","0.01017176470588222","-0.007376470588236075"
"994","0.007801999999999865","-0.015631000000000485"
"995","0.027542000000000164","-0.02671866666666697"
"996","0.013598333333333082","-0.016551666666665927"
"997","0.008432500000000509","-0.004802500000000265"
"998","0.008542380952380177","-0.007174285714285472"
"999","0.008652380952381088","-0.007230476190476527"
"1000","0.0084790909090903","-0.00600727272727268"
"1001","0.006594999999999374","-0.007062000000001944"
"1002","0.01019636363636358","-0.004067272727274423"
"1003","0.008898333333332195","-0.007046666666667534"
"1004","0.008605000000000492","-0.009838333333333319"
"1005","0.010624444444447236","-0.017345555555555354"
"1006","0.010056666666670822","-0.026679999999996557"
"1007","0.004700000000002073","-0.007646666666663767"
"1008","0.0020949999999970714","-0.007690000000000197"
"1009","9.799999999984266E-4","-0.0010650000000005377"
"1010","0.006295000000001494","-0.006225000000000591"
"1011","0.006491111111113273","-0.00498666666666815"
"1012","0.007655000000001522","-0.006621250000000245"
"1013","0.031455000000004674","-0.006655000000002076"
"1014","0.0067914285714262435","-0.006847142857142988"
"1015","0.009482999999998043","-0.004980000000000473"
"1016","0.009602857142856993","-0.007764285714286652"
"1017","0.008312499999999426","-0.009650000000000603"
"1018","0.0034975000000070366","-0.007169999999998566"
"1019","0.004209166666667485","-0.005024166666667422"
"1020","0.007531764705880599","-0.01485117647058796"
"1021","0.008346216216216056","-0.00928243243243178"
"1022","0.01796107142856838","-0.01822178571428625"
"1023","0.017790454545453308","-0.008074999999999994"
"1024","0.01306312499999951","-0.011393750000001202"
"1025","0.02116799999999728","-0.014409999999998747"
"1026","0.017780000000004747","-0.011197999999998843"
"1027","0.0018766666666702274","-0.005106666666665187"
"1028","0.006227500000004937","-0.002990000000004045"
"1029","0.007376666666666883","-0.004956666666667313"
"1030","0.00408000000000389","-0.0038771428571432614"
"1031","0.005170000000002044","-0.003753333333338086"
"1032","0.002717500000002815","-0.009542500000000231"
"1033","0.0","0.0"
"1034","0.0","0.0"
"1035","0.014840000000006626","-0.01840999999999582"
"1036","0.025022499999998615","-0.019324999999998482"
"1037","0.011527999999999422","-0.01810399999999902"
"1038","0.012354736842105097","-0.02276894736842051"
"1039","0.011391250000000186","-0.015601250000000455"
"1040","0.008164999999999681","-0.015249999999999394"
"1041","0.007360000000005584","-0.00337000000000387"
"1042","0.009999999999990905","-0.015450000000001296"
"1043","0.008150000000000546","-0.006670000000006837"
"1044","0.0046500000000122554","-0.0018500000000045702"
"1045","0.008309999999994488","-0.007780000000003895"
"1046","0.01106200000000257","-0.00977800000000002"
"1047","0.00993363636363624","-0.00811727272727322"
"1048","0.007075000000000742","-0.0068850000000011844"
"1049","0.009034000000000476","-0.012416999999998523"
"1050","0.00940066666666605","-0.010203333333333831"
"1051","0.013600714285713775","-0.00941214285714206"
"1052","0.0074199999999994375","-0.0057190909090904666"
"1053","0.007963333333333841","-0.0042788888888907195"
"1054","0.016026249999998576","-0.003910000000000302"
"1055","0.006630000000000536","-0.005294000000002086"
"1056","0.007005714285713996","-0.0072642857142873095"
"1057","0.006801250000002312","-0.0071875000000005684"
"1058","0.002573333333335389","-0.0032700000000005502"
"1059","0.007328000000002532","-0.008598000000003481"
"1060","0.005782000000000664","-0.010945999999995593"
"1061","0.013011999999996249","-0.01530000000000058"
"1062","0.008465000000001055","-0.00863000000000369"
"1063","0.005996666666663468","-0.001540000000000911"
"1064","0.008652499999998398","-0.006874999999999076"
"1065","0.005586363636363697","-0.007760000000000453"
"1066","0.006608095238096298","-0.007339523809524586"
"1067","0.00550043478261038","-0.00834173913043471"
"1068","0.006439142857142802","-0.009627142857143512"
"1069","0.0043334545454536575","-0.0033525454545437843"
"1070","0.0119335714285711","-0.013772142857144485"
"1071","0.0071989999999999554","-0.005074000000002599"
"1072","0.014936428571429263","-0.010145000000000388"
"1073","0.01261777777777853","-0.013971111111110367"
"1074","0.005217999999993594","-0.007979999999999165"
"1075","0.009478333333330369","-0.009343333333333703"
"1076","0.009483333333332351","-0.009796666666666058"
"1077","0.009337692307693803","-0.008783846153846753"
"1078","0.012069285714284814","-0.016915714285713892"
"1079","0.0","0.0"
"1080","0.0","0.0"
"1081","0.015413636363636452","-0.019559999999997822"
"1082","0.01104466666667084","-0.00849200000000015"
"1083","0.004570000000001073","-0.030019999999996827"
"1084","0.025583333333334696","-0.01937333333333413"
"1085","0.014287692307692309","-0.02593538461538495"
"1086","6.699999999995043E-4","-0.007510000000003458"
"1087","0.017220000000000013","-0.00551666666666506"
"1088","0.011634000000000099","-0.011071999999997218"
"1089","0.011044999999999602","-0.011856666666666626"
"1090","0.006956666666667388","-0.010186666666664715"
"1091","0.0","0.0"
"1092","0.010960000000000747","-0.012199999999992883"
"1093","0.0","0.0"
"1094","0.0","0.0"
"1095","0.0","0.0"
"1096","0.007542499999997787","-0.009577500000000683"
"1097","0.00807285714285452","-0.009997142857144021"
"1098","0.0058250000000003395","-0.007026666666667107"
"1099","0.005115000000001757","-0.006766249999998308"
"1100","0.005972727272725303","-0.006111818181817083"
"1101","0.00544909090909003","-0.009298181818183144"
"1102","0.009266666666665598","-0.009488888888887301"
"1103","0.01009500000000152","-0.004054999999997477"
"1104","0.0073249999999992115","-0.0028900000000007253"
"1105","0.007514999999999124","-0.004934999999997321"
"1106","0.004603333333334329","-0.004946666666667691"
"1107","0.006366666666660119","-0.006450000000000955"
"1108","0.005790000000002594","-0.008522857142858291"
"1109","0.004690000000000793","-0.007033999999999452"
"1110","0.006037000000000603","-0.004775999999998959"
"1111","0.004010833333335147","-0.008025000000001134"
"1112","0.005610000000000274","-0.00796285714285919"
"1113","0.005172500000007574","-0.0062475000000006276"
"1114","0.0021683333333394708","-0.0030000000000001137"
"1115","0.15790250000000405","-0.06111000000000022"
"1116","0.009541249999998058","-0.008220000000001448"
"1117","0.010047142857146696","-0.00648999999999741"
"1118","0.006320588235293284","-0.007500588235293752"
"1119","0.005902500000001254","-0.008651666666665392"
"1120","0.006448095238089498","-0.007953809523809377"
"1121","0.01800789473684305","-0.011257368421053715"
"1122","0.009051296296295551","-0.008982592592592934"
"1123","0.008378055555556645","-0.00969805555555641"
"1124","0.007164189189189464","-0.008145945945946741"
"1125","0.004085128205127684","-0.00593230769230775"
"1126","0.0","0.0"
"1127","0.0","0.0"
"1128","0.010880399999999782","-0.00789399999999972"
"1129","0.02240181818181952","-0.014850000000000111"
"1130","0.0028400000000004867","-0.006345999999999208"
"1131","0.008096666666673968","-0.016476666666664624"
"1132","0.008490000000001885","-0.030445000000000277"
"1133","0.0","0.0"
"1134","0.0","0.0"
"1135","0.0010400000000014842","-0.010660000000001446"
"1136","0.013630000000002696","-0.0034600000000040154"
"1137","0.003814444444444515","-0.002886111111112181"
"1138","0.01103875000000043","-0.010311249999999106"
"1139","0.016719999999998385","-0.008348571428573084"
"1140","0.01082000000000427","-0.006382500000000846"
"1141","0.006443333333319146","-0.006093333333332396"
"1142","0.010170000000000456","-0.007195000000002949"
"1143","0.009880000000006106","-0.0051099999999995776"
"1144","0.018799999999991712","-0.0020799999999994156"
"1145","0.0025379999999998403","-0.0047039999999981316"
"1146","0.006950000000003342","-0.0027299999999925717"
"1147","0.004966666666661013","-0.003433333333331253"
"1148","0.00945499999999555","-0.0037900000000021805"
"1149","0.0019533333333328073","-0.0033633333333327187"
"1150","0.005274444444443323","-0.004604444444444609"
"1151","0.0029719999999997526","-0.0023380000000003064"
"1152","0.0","0.0"
"1153","0.0034149999999986136","-0.005369999999999209"
"1154","0.00713400000000064","-0.002133999999999503"
"1155","0.006630000000003022","-0.007685000000002162"
"1156","0.002273333333339641","-0.005826666666666351"
"1157","0.0060716666666659575","-0.004359999999998365"
"1158","0.009312500000001833","-0.009977500000003303"
"1159","0.005475000000000563","-0.004122499999999363"
"1160","0.004715000000004466","-0.0030050000000017008"
"1161","0.004553999999995994","-0.009345999999999322"
"1162","0.0036466666666683523","-0.005200000000002092"
"1163","0.00410500000000269","-0.007145000000001289"
"1164","0.00883333333333288","-0.005101111111110236"
"1165","0.3146511764705868","-0.4464511764705892"
"1166","0.002103749999999849","-0.005539999999998102"
"1167","0.005565714285710653","-0.007998571428567556"
"1168","0.008378749999999612","-0.00964050000000043"
"1169","0.0057037209302322695","-0.006537209302325631"
"1170","0.0031312068965508523","-0.0052987931034477916"
"1171","0.004065895522387882","-0.0034787313432833623"
"1172","0.005229642857141162","-0.0047810714285702206"
"1173","0.0032966666666662072","-0.0029866666666649166"
"1174","1.599999999797319E-4","-0.012409999999995591"
